id,ax,ay,az,bx,by,bz,cx,cy,cz,nx,ny,nz,r,g,b
0,-5,0,-5,5,0,5,5,0,-5,0,1,0,0.55000001192092896,0.55000001192092896,0.55000001192092896
1,-5,0,-5,-5,0,5,5,0,5,0,1,0,0.55000001192092896,0.55000001192092896,0.55000001192092896
2,-3.7999999523162842,0,-3.7999999523162842,-3.7999999523162842,0.60000002384185791,-3.7999999523162842,-3.2000000476837158,0.60000002384185791,-3.7999999523162842,0,0,-1,0.20000000298023224,0.30000001192092896,0.25
3,-3.7999999523162842,0,-3.7999999523162842,-3.2000000476837158,0.60000002384185791,-3.7999999523162842,-3.2000000476837158,0,-3.7999999523162842,0,0,-1,0.20000000298023224,0.30000001192092896,0.25
4,-3.7999999523162842,0,-3.2000000476837158,-3.2000000476837158,0,-3.2000000476837158,-3.2000000476837158,0.60000002384185791,-3.2000000476837158,0,0,1,0.20000000298023224,0.30000001192092896,0.25
5,-3.7999999523162842,0,-3.2000000476837158,-3.2000000476837158,0.60000002384185791,-3.2000000476837158,-3.7999999523162842,0.60000002384185791,-3.2000000476837158,0,0,1,0.20000000298023224,0.30000001192092896,0.25
6,-3.7999999523162842,0,-3.7999999523162842,-3.7999999523162842,0,-3.2000000476837158,-3.7999999523162842,0.60000002384185791,-3.2000000476837158,-1,0,0,0.20000000298023224,0.30000001192092896,0.25
7,-3.7999999523162842,0,-3.7999999523162842,-3.7999999523162842,0.60000002384185791,-3.2000000476837158,-3.7999999523162842,0.60000002384185791,-3.7999999523162842,-1,0,0,0.20000000298023224,0.30000001192092896,0.25
8,-3.2000000476837158,0,-3.7999999523162842,-3.2000000476837158,0.60000002384185791,-3.7999999523162842,-3.2000000476837158,0.60000002384185791,-3.2000000476837158,1,0,0,0.20000000298023224,0.30000001192092896,0.25
9,-3.2000000476837158,0,-3.7999999523162842,-3.2000000476837158,0.60000002384185791,-3.2000000476837158,-3.2000000476837158,0,-3.2000000476837158,1,0,0,0.20000000298023224,0.30000001192092896,0.25
10,-3.7999999523162842,0,-3.7999999523162842,-3.2000000476837158,0,-3.7999999523162842,-3.2000000476837158,0,-3.2000000476837158,0,-1,0,0.20000000298023224,0.30000001192092896,0.25
11,-3.7999999523162842,0,-3.7999999523162842,-3.2000000476837158,0,-3.2000000476837158,-3.7999999523162842,0,-3.2000000476837158,0,-1,0,0.20000000298023224,0.30000001192092896,0.25
12,-3.7999999523162842,0.60000002384185791,-3.7999999523162842,-3.7999999523162842,0.60000002384185791,-3.2000000476837158,-3.2000000476837158,0.60000002384185791,-3.2000000476837158,0,1,0,0.20000000298023224,0.30000001192092896,0.25
13,-3.7999999523162842,0.60000002384185791,-3.7999999523162842,-3.2000000476837158,0.60000002384185791,-3.2000000476837158,-3.2000000476837158,0.60000002384185791,-3.7999999523162842,0,1,0,0.20000000298023224,0.30000001192092896,0.25
14,-2.7999999523162842,0,-3.7999999523162842,-2.7999999523162842,0.60000002384185791,-3.7999999523162842,-2.2000000476837158,0.60000002384185791,-3.7999999523162842,0,0,-1,0.30000001192092896,0.37000000476837158,0.33000001311302185
15,-2.7999999523162842,0,-3.7999999523162842,-2.2000000476837158,0.60000002384185791,-3.7999999523162842,-2.2000000476837158,0,-3.7999999523162842,0,0,-1,0.30000001192092896,0.37000000476837158,0.33000001311302185
16,-2.7999999523162842,0,-3.2000000476837158,-2.2000000476837158,0,-3.2000000476837158,-2.2000000476837158,0.60000002384185791,-3.2000000476837158,0,0,1,0.30000001192092896,0.37000000476837158,0.33000001311302185
17,-2.7999999523162842,0,-3.2000000476837158,-2.2000000476837158,0.60000002384185791,-3.2000000476837158,-2.7999999523162842,0.60000002384185791,-3.2000000476837158,0,0,1,0.30000001192092896,0.37000000476837158,0.33000001311302185
18,-2.7999999523162842,0,-3.7999999523162842,-2.7999999523162842,0,-3.2000000476837158,-2.7999999523162842,0.60000002384185791,-3.2000000476837158,-1,0,0,0.30000001192092896,0.37000000476837158,0.33000001311302185
19,-2.7999999523162842,0,-3.7999999523162842,-2.7999999523162842,0.60000002384185791,-3.2000000476837158,-2.7999999523162842,0.60000002384185791,-3.7999999523162842,-1,0,0,0.30000001192092896,0.37000000476837158,0.33000001311302185
20,-2.2000000476837158,0,-3.7999999523162842,-2.2000000476837158,0.60000002384185791,-3.7999999523162842,-2.2000000476837158,0.60000002384185791,-3.2000000476837158,1,0,0,0.30000001192092896,0.37000000476837158,0.33000001311302185
21,-2.2000000476837158,0,-3.7999999523162842,-2.2000000476837158,0.60000002384185791,-3.2000000476837158,-2.2000000476837158,0,-3.2000000476837158,1,0,0,0.30000001192092896,0.37000000476837158,0.33000001311302185
22,-2.7999999523162842,0,-3.7999999523162842,-2.2000000476837158,0,-3.7999999523162842,-2.2000000476837158,0,-3.2000000476837158,0,-1,0,0.30000001192092896,0.37000000476837158,0.33000001311302185
23,-2.7999999523162842,0,-3.7999999523162842,-2.2000000476837158,0,-3.2000000476837158,-2.7999999523162842,0,-3.2000000476837158,0,-1,0,0.30000001192092896,0.37000000476837158,0.33000001311302185
24,-2.7999999523162842,0.60000002384185791,-3.7999999523162842,-2.7999999523162842,0.60000002384185791,-3.2000000476837158,-2.2000000476837158,0.60000002384185791,-3.2000000476837158,0,1,0,0.30000001192092896,0.37000000476837158,0.33000001311302185
25,-2.7999999523162842,0.60000002384185791,-3.7999999523162842,-2.2000000476837158,0.60000002384185791,-3.2000000476837158,-2.2000000476837158,0.60000002384185791,-3.7999999523162842,0,1,0,0.30000001192092896,0.37000000476837158,0.33000001311302185
26,-1.7999999523162842,0,-3.7999999523162842,-1.7999999523162842,0.60000002384185791,-3.7999999523162842,-1.2000000476837158,0.60000002384185791,-3.7999999523162842,0,0,-1,0.40000000596046448,0.43999999761581421,0.40999999642372131
27,-1.7999999523162842,0,-3.7999999523162842,-1.2000000476837158,0.60000002384185791,-3.7999999523162842,-1.2000000476837158,0,-3.7999999523162842,0,0,-1,0.40000000596046448,0.43999999761581421,0.40999999642372131
28,-1.7999999523162842,0,-3.2000000476837158,-1.2000000476837158,0,-3.2000000476837158,-1.2000000476837158,0.60000002384185791,-3.2000000476837158,0,0,1,0.40000000596046448,0.43999999761581421,0.40999999642372131
29,-1.7999999523162842,0,-3.2000000476837158,-1.2000000476837158,0.60000002384185791,-3.2000000476837158,-1.7999999523162842,0.60000002384185791,-3.2000000476837158,0,0,1,0.40000000596046448,0.43999999761581421,0.40999999642372131
30,-1.7999999523162842,0,-3.7999999523162842,-1.7999999523162842,0,-3.2000000476837158,-1.7999999523162842,0.60000002384185791,-3.2000000476837158,-1,0,0,0.40000000596046448,0.43999999761581421,0.40999999642372131
31,-1.7999999523162842,0,-3.7999999523162842,-1.7999999523162842,0.60000002384185791,-3.2000000476837158,-1.7999999523162842,0.60000002384185791,-3.7999999523162842,-1,0,0,0.40000000596046448,0.43999999761581421,0.40999999642372131
32,-1.2000000476837158,0,-3.7999999523162842,-1.2000000476837158,0.60000002384185791,-3.7999999523162842,-1.2000000476837158,0.60000002384185791,-3.2000000476837158,1,0,0,0.40000000596046448,0.43999999761581421,0.40999999642372131
33,-1.2000000476837158,0,-3.7999999523162842,-1.2000000476837158,0.60000002384185791,-3.2000000476837158,-1.2000000476837158,0,-3.2000000476837158,1,0,0,0.40000000596046448,0.43999999761581421,0.40999999642372131
34,-1.7999999523162842,0,-3.7999999523162842,-1.2000000476837158,0,-3.7999999523162842,-1.2000000476837158,0,-3.2000000476837158,0,-1,0,0.40000000596046448,0.43999999761581421,0.40999999642372131
35,-1.7999999523162842,0,-3.7999999523162842,-1.2000000476837158,0,-3.2000000476837158,-1.7999999523162842,0,-3.2000000476837158,0,-1,0,0.40000000596046448,0.43999999761581421,0.40999999642372131
36,-1.7999999523162842,0.60000002384185791,-3.7999999523162842,-1.7999999523162842,0.60000002384185791,-3.2000000476837158,-1.2000000476837158,0.60000002384185791,-3.2000000476837158,0,1,0,0.40000000596046448,0.43999999761581421,0.40999999642372131
37,-1.7999999523162842,0.60000002384185791,-3.7999999523162842,-1.2000000476837158,0.60000002384185791,-3.2000000476837158,-1.2000000476837158,0.60000002384185791,-3.7999999523162842,0,1,0,0.40000000596046448,0.43999999761581421,0.40999999642372131
38,-0.80000001192092896,0,-3.7999999523162842,-0.80000001192092896,0.60000002384185791,-3.7999999523162842,-0.20000000298023224,0.60000002384185791,-3.7999999523162842,0,0,-1,0.5,0.50999999046325684,0.49000000953674316
39,-0.80000001192092896,0,-3.7999999523162842,-0.20000000298023224,0.60000002384185791,-3.7999999523162842,-0.20000000298023224,0,-3.7999999523162842,0,0,-1,0.5,0.50999999046325684,0.49000000953674316
40,-0.80000001192092896,0,-3.2000000476837158,-0.20000000298023224,0,-3.2000000476837158,-0.20000000298023224,0.60000002384185791,-3.2000000476837158,0,0,1,0.5,0.50999999046325684,0.49000000953674316
41,-0.80000001192092896,0,-3.2000000476837158,-0.20000000298023224,0.60000002384185791,-3.2000000476837158,-0.80000001192092896,0.60000002384185791,-3.2000000476837158,0,0,1,0.5,0.50999999046325684,0.49000000953674316
42,-0.80000001192092896,0,-3.7999999523162842,-0.80000001192092896,0,-3.2000000476837158,-0.80000001192092896,0.60000002384185791,-3.2000000476837158,-1,0,0,0.5,0.50999999046325684,0.49000000953674316
43,-0.80000001192092896,0,-3.7999999523162842,-0.80000001192092896,0.60000002384185791,-3.2000000476837158,-0.80000001192092896,0.60000002384185791,-3.7999999523162842,-1,0,0,0.5,0.50999999046325684,0.49000000953674316
44,-0.20000000298023224,0,-3.7999999523162842,-0.20000000298023224,0.60000002384185791,-3.7999999523162842,-0.20000000298023224,0.60000002384185791,-3.2000000476837158,1,0,0,0.5,0.50999999046325684,0.49000000953674316
45,-0.20000000298023224,0,-3.7999999523162842,-0.20000000298023224,0.60000002384185791,-3.2000000476837158,-0.20000000298023224,0,-3.2000000476837158,1,0,0,0.5,0.50999999046325684,0.49000000953674316
46,-0.80000001192092896,0,-3.7999999523162842,-0.20000000298023224,0,-3.7999999523162842,-0.20000000298023224,0,-3.2000000476837158,0,-1,0,0.5,0.50999999046325684,0.49000000953674316
47,-0.80000001192092896,0,-3.7999999523162842,-0.20000000298023224,0,-3.2000000476837158,-0.80000001192092896,0,-3.2000000476837158,0,-1,0,0.5,0.50999999046325684,0.49000000953674316
48,-0.80000001192092896,0.60000002384185791,-3.7999999523162842,-0.80000001192092896,0.60000002384185791,-3.2000000476837158,-0.20000000298023224,0.60000002384185791,-3.2000000476837158,0,1,0,0.5,0.50999999046325684,0.49000000953674316
49,-0.80000001192092896,0.60000002384185791,-3.7999999523162842,-0.20000000298023224,0.60000002384185791,-3.2000000476837158,-0.20000000298023224,0.60000002384185791,-3.7999999523162842,0,1,0,0.5,0.50999999046325684,0.49000000953674316
50,0.20000000298023224,0,-3.7999999523162842,0.20000000298023224,0.60000002384185791,-3.7999999523162842,0.80000001192092896,0.60000002384185791,-3.7999999523162842,0,0,-1,0.60000002384185791,0.57999998331069946,0.56999999284744263
51,0.20000000298023224,0,-3.7999999523162842,0.80000001192092896,0.60000002384185791,-3.7999999523162842,0.80000001192092896,0,-3.7999999523162842,0,0,-1,0.60000002384185791,0.57999998331069946,0.56999999284744263
52,0.20000000298023224,0,-3.2000000476837158,0.80000001192092896,0,-3.2000000476837158,0.80000001192092896,0.60000002384185791,-3.2000000476837158,0,0,1,0.60000002384185791,0.57999998331069946,0.56999999284744263
53,0.20000000298023224,0,-3.2000000476837158,0.80000001192092896,0.60000002384185791,-3.2000000476837158,0.20000000298023224,0.60000002384185791,-3.2000000476837158,0,0,1,0.60000002384185791,0.57999998331069946,0.56999999284744263
54,0.20000000298023224,0,-3.7999999523162842,0.20000000298023224,0,-3.2000000476837158,0.20000000298023224,0.60000002384185791,-3.2000000476837158,-1,0,0,0.60000002384185791,0.57999998331069946,0.56999999284744263
55,0.20000000298023224,0,-3.7999999523162842,0.20000000298023224,0.60000002384185791,-3.2000000476837158,0.20000000298023224,0.60000002384185791,-3.7999999523162842,-1,0,0,0.60000002384185791,0.57999998331069946,0.56999999284744263
56,0.80000001192092896,0,-3.7999999523162842,0.80000001192092896,0.60000002384185791,-3.7999999523162842,0.80000001192092896,0.60000002384185791,-3.2000000476837158,1,0,0,0.60000002384185791,0.57999998331069946,0.56999999284744263
57,0.80000001192092896,0,-3.7999999523162842,0.80000001192092896,0.60000002384185791,-3.2000000476837158,0.80000001192092896,0,-3.2000000476837158,1,0,0,0.60000002384185791,0.57999998331069946,0.56999999284744263
58,0.20000000298023224,0,-3.7999999523162842,0.80000001192092896,0,-3.7999999523162842,0.80000001192092896,0,-3.2000000476837158,0,-1,0,0.60000002384185791,0.57999998331069946,0.56999999284744263
59,0.20000000298023224,0,-3.7999999523162842,0.80000001192092896,0,-3.2000000476837158,0.20000000298023224,0,-3.2000000476837158,0,-1,0,0.60000002384185791,0.57999998331069946,0.56999999284744263
60,0.20000000298023224,0.60000002384185791,-3.7999999523162842,0.20000000298023224,0.60000002384185791,-3.2000000476837158,0.80000001192092896,0.60000002384185791,-3.2000000476837158,0,1,0,0.60000002384185791,0.57999998331069946,0.56999999284744263
61,0.20000000298023224,0.60000002384185791,-3.7999999523162842,0.80000001192092896,0.60000002384185791,-3.2000000476837158,0.80000001192092896,0.60000002384185791,-3.7999999523162842,0,1,0,0.60000002384185791,0.57999998331069946,0.56999999284744263
62,1.2000000476837158,0,-3.7999999523162842,1.2000000476837158,0.60000002384185791,-3.7999999523162842,1.7999999523162842,0.60000002384185791,-3.7999999523162842,0,0,-1,0.20000000298023224,0.64999997615814209,0.64999997615814209
63,1.2000000476837158,0,-3.7999999523162842,1.7999999523162842,0.60000002384185791,-3.7999999523162842,1.7999999523162842,0,-3.7999999523162842,0,0,-1,0.20000000298023224,0.64999997615814209,0.64999997615814209
64,1.2000000476837158,0,-3.2000000476837158,1.7999999523162842,0,-3.2000000476837158,1.7999999523162842,0.60000002384185791,-3.2000000476837158,0,0,1,0.20000000298023224,0.64999997615814209,0.64999997615814209
65,1.2000000476837158,0,-3.2000000476837158,1.7999999523162842,0.60000002384185791,-3.2000000476837158,1.2000000476837158,0.60000002384185791,-3.2000000476837158,0,0,1,0.20000000298023224,0.64999997615814209,0.64999997615814209
66,1.2000000476837158,0,-3.7999999523162842,1.2000000476837158,0,-3.2000000476837158,1.2000000476837158,0.60000002384185791,-3.2000000476837158,-1,0,0,0.20000000298023224,0.64999997615814209,0.64999997615814209
67,1.2000000476837158,0,-3.7999999523162842,1.2000000476837158,0.60000002384185791,-3.2000000476837158,1.2000000476837158,0.60000002384185791,-3.7999999523162842,-1,0,0,0.20000000298023224,0.64999997615814209,0.64999997615814209
68,1.7999999523162842,0,-3.7999999523162842,1.7999999523162842,0.60000002384185791,-3.7999999523162842,1.7999999523162842,0.60000002384185791,-3.2000000476837158,1,0,0,0.20000000298023224,0.64999997615814209,0.64999997615814209
69,1.7999999523162842,0,-3.7999999523162842,1.7999999523162842,0.60000002384185791,-3.2000000476837158,1.7999999523162842,0,-3.2000000476837158,1,0,0,0.20000000298023224,0.64999997615814209,0.64999997615814209
70,1.2000000476837158,0,-3.7999999523162842,1.7999999523162842,0,-3.7999999523162842,1.7999999523162842,0,-3.2000000476837158,0,-1,0,0.20000000298023224,0.64999997615814209,0.64999997615814209
71,1.2000000476837158,0,-3.7999999523162842,1.7999999523162842,0,-3.2000000476837158,1.2000000476837158,0,-3.2000000476837158,0,-1,0,0.20000000298023224,0.64999997615814209,0.64999997615814209
72,1.2000000476837158,0.60000002384185791,-3.7999999523162842,1.2000000476837158,0.60000002384185791,-3.2000000476837158,1.7999999523162842,0.60000002384185791,-3.2000000476837158,0,1,0,0.20000000298023224,0.64999997615814209,0.64999997615814209
73,1.2000000476837158,0.60000002384185791,-3.7999999523162842,1.7999999523162842,0.60000002384185791,-3.2000000476837158,1.7999999523162842,0.60000002384185791,-3.7999999523162842,0,1,0,0.20000000298023224,0.64999997615814209,0.64999997615814209
74,2.2000000476837158,0,-3.7999999523162842,2.2000000476837158,0.60000002384185791,-3.7999999523162842,2.7999999523162842,0.60000002384185791,-3.7999999523162842,0,0,-1,0.30000001192092896,0.72000002861022949,0.25
75,2.2000000476837158,0,-3.7999999523162842,2.7999999523162842,0.60000002384185791,-3.7999999523162842,2.7999999523162842,0,-3.7999999523162842,0,0,-1,0.30000001192092896,0.72000002861022949,0.25
76,2.2000000476837158,0,-3.2000000476837158,2.7999999523162842,0,-3.2000000476837158,2.7999999523162842,0.60000002384185791,-3.2000000476837158,0,0,1,0.30000001192092896,0.72000002861022949,0.25
77,2.2000000476837158,0,-3.2000000476837158,2.7999999523162842,0.60000002384185791,-3.2000000476837158,2.2000000476837158,0.60000002384185791,-3.2000000476837158,0,0,1,0.30000001192092896,0.72000002861022949,0.25
78,2.2000000476837158,0,-3.7999999523162842,2.2000000476837158,0,-3.2000000476837158,2.2000000476837158,0.60000002384185791,-3.2000000476837158,-1,0,0,0.30000001192092896,0.72000002861022949,0.25
79,2.2000000476837158,0,-3.7999999523162842,2.2000000476837158,0.60000002384185791,-3.2000000476837158,2.2000000476837158,0.60000002384185791,-3.7999999523162842,-1,0,0,0.30000001192092896,0.72000002861022949,0.25
80,2.7999999523162842,0,-3.7999999523162842,2.7999999523162842,0.60000002384185791,-3.7999999523162842,2.7999999523162842,0.60000002384185791,-3.2000000476837158,1,0,0,0.30000001192092896,0.72000002861022949,0.25
81,2.7999999523162842,0,-3.7999999523162842,2.7999999523162842,0.60000002384185791,-3.2000000476837158,2.7999999523162842,0,-3.2000000476837158,1,0,0,0.30000001192092896,0.72000002861022949,0.25
82,2.2000000476837158,0,-3.7999999523162842,2.7999999523162842,0,-3.7999999523162842,2.7999999523162842,0,-3.2000000476837158,0,-1,0,0.30000001192092896,0.72000002861022949,0.25
83,2.2000000476837158,0,-3.7999999523162842,2.7999999523162842,0,-3.2000000476837158,2.2000000476837158,0,-3.2000000476837158,0,-1,0,0.30000001192092896,0.72000002861022949,0.25
84,2.2000000476837158,0.60000002384185791,-3.7999999523162842,2.2000000476837158,0.60000002384185791,-3.2000000476837158,2.7999999523162842,0.60000002384185791,-3.2000000476837158,0,1,0,0.30000001192092896,0.72000002861022949,0.25
85,2.2000000476837158,0.60000002384185791,-3.7999999523162842,2.7999999523162842,0.60000002384185791,-3.2000000476837158,2.7999999523162842,0.60000002384185791,-3.7999999523162842,0,1,0,0.30000001192092896,0.72000002861022949,0.25
86,3.2000000476837158,0,-3.7999999523162842,3.2000000476837158,0.60000002384185791,-3.7999999523162842,3.7999999523162842,0.60000002384185791,-3.7999999523162842,0,0,-1,0.40000000596046448,0.30000001192092896,0.33000001311302185
87,3.2000000476837158,0,-3.7999999523162842,3.7999999523162842,0.60000002384185791,-3.7999999523162842,3.7999999523162842,0,-3.7999999523162842,0,0,-1,0.40000000596046448,0.30000001192092896,0.33000001311302185
88,3.2000000476837158,0,-3.2000000476837158,3.7999999523162842,0,-3.2000000476837158,3.7999999523162842,0.60000002384185791,-3.2000000476837158,0,0,1,0.40000000596046448,0.30000001192092896,0.33000001311302185
89,3.2000000476837158,0,-3.2000000476837158,3.7999999523162842,0.60000002384185791,-3.2000000476837158,3.2000000476837158,0.60000002384185791,-3.2000000476837158,0,0,1,0.40000000596046448,0.30000001192092896,0.33000001311302185
90,3.2000000476837158,0,-3.7999999523162842,3.2000000476837158,0,-3.2000000476837158,3.2000000476837158,0.60000002384185791,-3.2000000476837158,-1,0,0,0.40000000596046448,0.30000001192092896,0.33000001311302185
91,3.2000000476837158,0,-3.7999999523162842,3.2000000476837158,0.60000002384185791,-3.2000000476837158,3.2000000476837158,0.60000002384185791,-3.7999999523162842,-1,0,0,0.40000000596046448,0.30000001192092896,0.33000001311302185
92,3.7999999523162842,0,-3.7999999523162842,3.7999999523162842,0.60000002384185791,-3.7999999523162842,3.7999999523162842,0.60000002384185791,-3.2000000476837158,1,0,0,0.40000000596046448,0.30000001192092896,0.33000001311302185
93,3.7999999523162842,0,-3.7999999523162842,3.7999999523162842,0.60000002384185791,-3.2000000476837158,3.7999999523162842,0,-3.2000000476837158,1,0,0,0.40000000596046448,0.30000001192092896,0.33000001311302185
94,3.2000000476837158,0,-3.7999999523162842,3.7999999523162842,0,-3.7999999523162842,3.7999999523162842,0,-3.2000000476837158,0,-1,0,0.40000000596046448,0.30000001192092896,0.33000001311302185
95,3.2000000476837158,0,-3.7999999523162842,3.7999999523162842,0,-3.2000000476837158,3.2000000476837158,0,-3.2000000476837158,0,-1,0,0.40000000596046448,0.30000001192092896,0.33000001311302185
96,3.2000000476837158,0.60000002384185791,-3.7999999523162842,3.2000000476837158,0.60000002384185791,-3.2000000476837158,3.7999999523162842,0.60000002384185791,-3.2000000476837158,0,1,0,0.40000000596046448,0.30000001192092896,0.33000001311302185
97,3.2000000476837158,0.60000002384185791,-3.7999999523162842,3.7999999523162842,0.60000002384185791,-3.2000000476837158,3.7999999523162842,0.60000002384185791,-3.7999999523162842,0,1,0,0.40000000596046448,0.30000001192092896,0.33000001311302185
98,-3.7999999523162842,0,-2.7999999523162842,-3.7999999523162842,0.60000002384185791,-2.7999999523162842,-3.2000000476837158,0.60000002384185791,-2.7999999523162842,0,0,-1,0.5,0.37000000476837158,0.40999999642372131
99,-3.7999999523162842,0,-2.7999999523162842,-3.2000000476837158,0.60000002384185791,-2.7999999523162842,-3.2000000476837158,0,-2.7999999523162842,0,0,-1,0.5,0.37000000476837158,0.40999999642372131
100,-3.7999999523162842,0,-2.2000000476837158,-3.2000000476837158,0,-2.2000000476837158,-3.2000000476837158,0.60000002384185791,-2.2000000476837158,0,0,1,0.5,0.37000000476837158,0.40999999642372131
101,-3.7999999523162842,0,-2.2000000476837158,-3.2000000476837158,0.60000002384185791,-2.2000000476837158,-3.7999999523162842,0.60000002384185791,-2.2000000476837158,0,0,1,0.5,0.37000000476837158,0.40999999642372131
102,-3.7999999523162842,0,-2.7999999523162842,-3.7999999523162842,0,-2.2000000476837158,-3.7999999523162842,0.60000002384185791,-2.2000000476837158,-1,0,0,0.5,0.37000000476837158,0.40999999642372131
103,-3.7999999523162842,0,-2.7999999523162842,-3.7999999523162842,0.60000002384185791,-2.2000000476837158,-3.7999999523162842,0.60000002384185791,-2.7999999523162842,-1,0,0,0.5,0.37000000476837158,0.40999999642372131
104,-3.2000000476837158,0,-2.7999999523162842,-3.2000000476837158,0.60000002384185791,-2.7999999523162842,-3.2000000476837158,0.60000002384185791,-2.2000000476837158,1,0,0,0.5,0.37000000476837158,0.40999999642372131
105,-3.2000000476837158,0,-2.7999999523162842,-3.2000000476837158,0.60000002384185791,-2.2000000476837158,-3.2000000476837158,0,-2.2000000476837158,1,0,0,0.5,0.37000000476837158,0.40999999642372131
106,-3.7999999523162842,0,-2.7999999523162842,-3.2000000476837158,0,-2.7999999523162842,-3.2000000476837158,0,-2.2000000476837158,0,-1,0,0.5,0.37000000476837158,0.40999999642372131
107,-3.7999999523162842,0,-2.7999999523162842,-3.2000000476837158,0,-2.2000000476837158,-3.7999999523162842,0,-2.2000000476837158,0,-1,0,0.5,0.37000000476837158,0.40999999642372131
108,-3.7999999523162842,0.60000002384185791,-2.7999999523162842,-3.7999999523162842,0.60000002384185791,-2.2000000476837158,-3.2000000476837158,0.60000002384185791,-2.2000000476837158,0,1,0,0.5,0.37000000476837158,0.40999999642372131
109,-3.7999999523162842,0.60000002384185791,-2.7999999523162842,-3.2000000476837158,0.60000002384185791,-2.2000000476837158,-3.2000000476837158,0.60000002384185791,-2.7999999523162842,0,1,0,0.5,0.37000000476837158,0.40999999642372131
110,-2.7999999523162842,0,-2.7999999523162842,-2.7999999523162842,0.60000002384185791,-2.7999999523162842,-2.2000000476837158,0.60000002384185791,-2.7999999523162842,0,0,-1,0.60000002384185791,0.43999999761581421,0.49000000953674316
111,-2.7999999523162842,0,-2.7999999523162842,-2.2000000476837158,0.60000002384185791,-2.7999999523162842,-2.2000000476837158,0,-2.7999999523162842,0,0,-1,0.60000002384185791,0.43999999761581421,0.49000000953674316
112,-2.7999999523162842,0,-2.2000000476837158,-2.2000000476837158,0,-2.2000000476837158,-2.2000000476837158,0.60000002384185791,-2.2000000476837158,0,0,1,0.60000002384185791,0.43999999761581421,0.49000000953674316
113,-2.7999999523162842,0,-2.2000000476837158,-2.2000000476837158,0.60000002384185791,-2.2000000476837158,-2.7999999523162842,0.60000002384185791,-2.2000000476837158,0,0,1,0.60000002384185791,0.43999999761581421,0.49000000953674316
114,-2.7999999523162842,0,-2.7999999523162842,-2.7999999523162842,0,-2.2000000476837158,-2.7999999523162842,0.60000002384185791,-2.2000000476837158,-1,0,0,0.60000002384185791,0.43999999761581421,0.49000000953674316
115,-2.7999999523162842,0,-2.7999999523162842,-2.7999999523162842,0.60000002384185791,-2.2000000476837158,-2.7999999523162842,0.60000002384185791,-2.7999999523162842,-1,0,0,0.60000002384185791,0.43999999761581421,0.49000000953674316
116,-2.2000000476837158,0,-2.7999999523162842,-2.2000000476837158,0.60000002384185791,-2.7999999523162842,-2.2000000476837158,0.60000002384185791,-2.2000000476837158,1,0,0,0.60000002384185791,0.43999999761581421,0.49000000953674316
117,-2.2000000476837158,0,-2.7999999523162842,-2.2000000476837158,0.60000002384185791,-2.2000000476837158,-2.2000000476837158,0,-2.2000000476837158,1,0,0,0.60000002384185791,0.43999999761581421,0.49000000953674316
118,-2.7999999523162842,0,-2.7999999523162842,-2.2000000476837158,0,-2.7999999523162842,-2.2000000476837158,0,-2.2000000476837158,0,-1,0,0.60000002384185791,0.43999999761581421,0.49000000953674316
119,-2.7999999523162842,0,-2.7999999523162842,-2.2000000476837158,0,-2.2000000476837158,-2.7999999523162842,0,-2.2000000476837158,0,-1,0,0.60000002384185791,0.43999999761581421,0.49000000953674316
120,-2.7999999523162842,0.60000002384185791,-2.7999999523162842,-2.7999999523162842,0.60000002384185791,-2.2000000476837158,-2.2000000476837158,0.60000002384185791,-2.2000000476837158,0,1,0,0.60000002384185791,0.43999999761581421,0.49000000953674316
121,-2.7999999523162842,0.60000002384185791,-2.7999999523162842,-2.2000000476837158,0.60000002384185791,-2.2000000476837158,-2.2000000476837158,0.60000002384185791,-2.7999999523162842,0,1,0,0.60000002384185791,0.43999999761581421,0.49000000953674316
122,-1.7999999523162842,0,-2.7999999523162842,-1.7999999523162842,0.60000002384185791,-2.7999999523162842,-1.2000000476837158,0.60000002384185791,-2.7999999523162842,0,0,-1,0.20000000298023224,0.50999999046325684,0.56999999284744263
123,-1.7999999523162842,0,-2.7999999523162842,-1.2000000476837158,0.60000002384185791,-2.7999999523162842,-1.2000000476837158,0,-2.7999999523162842,0,0,-1,0.20000000298023224,0.50999999046325684,0.56999999284744263
124,-1.7999999523162842,0,-2.2000000476837158,-1.2000000476837158,0,-2.2000000476837158,-1.2000000476837158,0.60000002384185791,-2.2000000476837158,0,0,1,0.20000000298023224,0.50999999046325684,0.56999999284744263
125,-1.7999999523162842,0,-2.2000000476837158,-1.2000000476837158,0.60000002384185791,-2.2000000476837158,-1.7999999523162842,0.60000002384185791,-2.2000000476837158,0,0,1,0.20000000298023224,0.50999999046325684,0.56999999284744263
126,-1.7999999523162842,0,-2.7999999523162842,-1.7999999523162842,0,-2.2000000476837158,-1.7999999523162842,0.60000002384185791,-2.2000000476837158,-1,0,0,0.20000000298023224,0.50999999046325684,0.56999999284744263
127,-1.7999999523162842,0,-2.7999999523162842,-1.7999999523162842,0.60000002384185791,-2.2000000476837158,-1.7999999523162842,0.60000002384185791,-2.7999999523162842,-1,0,0,0.20000000298023224,0.50999999046325684,0.56999999284744263
128,-1.2000000476837158,0,-2.7999999523162842,-1.2000000476837158,0.60000002384185791,-2.7999999523162842,-1.2000000476837158,0.60000002384185791,-2.2000000476837158,1,0,0,0.20000000298023224,0.50999999046325684,0.56999999284744263
129,-1.2000000476837158,0,-2.7999999523162842,-1.2000000476837158,0.60000002384185791,-2.2000000476837158,-1.2000000476837158,0,-2.2000000476837158,1,0,0,0.20000000298023224,0.50999999046325684,0.56999999284744263
130,-1.7999999523162842,0,-2.7999999523162842,-1.2000000476837158,0,-2.7999999523162842,-1.2000000476837158,0,-2.2000000476837158,0,-1,0,0.20000000298023224,0.50999999046325684,0.56999999284744263
131,-1.7999999523162842,0,-2.7999999523162842,-1.2000000476837158,0,-2.2000000476837158,-1.7999999523162842,0,-2.2000000476837158,0,-1,0,0.20000000298023224,0.50999999046325684,0.56999999284744263
132,-1.7999999523162842,0.60000002384185791,-2.7999999523162842,-1.7999999523162842,0.60000002384185791,-2.2000000476837158,-1.2000000476837158,0.60000002384185791,-2.2000000476837158,0,1,0,0.20000000298023224,0.50999999046325684,0.56999999284744263
133,-1.7999999523162842,0.60000002384185791,-2.7999999523162842,-1.2000000476837158,0.60000002384185791,-2.2000000476837158,-1.2000000476837158,0.60000002384185791,-2.7999999523162842,0,1,0,0.20000000298023224,0.50999999046325684,0.56999999284744263
134,-0.80000001192092896,0,-2.7999999523162842,-0.80000001192092896,0.60000002384185791,-2.7999999523162842,-0.20000000298023224,0.60000002384185791,-2.7999999523162842,0,0,-1,0.30000001192092896,0.57999998331069946,0.64999997615814209
135,-0.80000001192092896,0,-2.7999999523162842,-0.20000000298023224,0.60000002384185791,-2.7999999523162842,-0.20000000298023224,0,-2.7999999523162842,0,0,-1,0.30000001192092896,0.57999998331069946,0.64999997615814209
136,-0.80000001192092896,0,-2.2000000476837158,-0.20000000298023224,0,-2.2000000476837158,-0.20000000298023224,0.60000002384185791,-2.2000000476837158,0,0,1,0.30000001192092896,0.57999998331069946,0.64999997615814209
137,-0.80000001192092896,0,-2.2000000476837158,-0.20000000298023224,0.60000002384185791,-2.2000000476837158,-0.80000001192092896,0.60000002384185791,-2.2000000476837158,0,0,1,0.30000001192092896,0.57999998331069946,0.64999997615814209
138,-0.80000001192092896,0,-2.7999999523162842,-0.80000001192092896,0,-2.2000000476837158,-0.80000001192092896,0.60000002384185791,-2.2000000476837158,-1,0,0,0.30000001192092896,0.57999998331069946,0.64999997615814209
139,-0.80000001192092896,0,-2.7999999523162842,-0.80000001192092896,0.60000002384185791,-2.2000000476837158,-0.80000001192092896,0.60000002384185791,-2.7999999523162842,-1,0,0,0.30000001192092896,0.57999998331069946,0.64999997615814209
140,-0.20000000298023224,0,-2.7999999523162842,-0.20000000298023224,0.60000002384185791,-2.7999999523162842,-0.20000000298023224,0.60000002384185791,-2.2000000476837158,1,0,0,0.30000001192092896,0.57999998331069946,0.64999997615814209
141,-0.20000000298023224,0,-2.7999999523162842,-0.20000000298023224,0.60000002384185791,-2.2000000476837158,-0.20000000298023224,0,-2.2000000476837158,1,0,0,0.30000001192092896,0.57999998331069946,0.64999997615814209
142,-0.80000001192092896,0,-2.7999999523162842,-0.20000000298023224,0,-2.7999999523162842,-0.20000000298023224,0,-2.2000000476837158,0,-1,0,0.30000001192092896,0.57999998331069946,0.64999997615814209
143,-0.80000001192092896,0,-2.7999999523162842,-0.20000000298023224,0,-2.2000000476837158,-0.80000001192092896,0,-2.2000000476837158,0,-1,0,0.30000001192092896,0.57999998331069946,0.64999997615814209
144,-0.80000001192092896,0.60000002384185791,-2.7999999523162842,-0.80000001192092896,0.60000002384185791,-2.2000000476837158,-0.20000000298023224,0.60000002384185791,-2.2000000476837158,0,1,0,0.30000001192092896,0.57999998331069946,0.64999997615814209
145,-0.80000001192092896,0.60000002384185791,-2.7999999523162842,-0.20000000298023224,0.60000002384185791,-2.2000000476837158,-0.20000000298023224,0.60000002384185791,-2.7999999523162842,0,1,0,0.30000001192092896,0.57999998331069946,0.64999997615814209
146,0.20000000298023224,0,-2.7999999523162842,0.20000000298023224,0.60000002384185791,-2.7999999523162842,0.80000001192092896,0.60000002384185791,-2.7999999523162842,0,0,-1,0.40000000596046448,0.64999997615814209,0.25
147,0.20000000298023224,0,-2.7999999523162842,0.80000001192092896,0.60000002384185791,-2.7999999523162842,0.80000001192092896,0,-2.7999999523162842,0,0,-1,0.40000000596046448,0.64999997615814209,0.25
148,0.20000000298023224,0,-2.2000000476837158,0.80000001192092896,0,-2.2000000476837158,0.80000001192092896,0.60000002384185791,-2.2000000476837158,0,0,1,0.40000000596046448,0.64999997615814209,0.25
149,0.20000000298023224,0,-2.2000000476837158,0.80000001192092896,0.60000002384185791,-2.2000000476837158,0.20000000298023224,0.60000002384185791,-2.2000000476837158,0,0,1,0.40000000596046448,0.64999997615814209,0.25
150,0.20000000298023224,0,-2.7999999523162842,0.20000000298023224,0,-2.2000000476837158,0.20000000298023224,0.60000002384185791,-2.2000000476837158,-1,0,0,0.40000000596046448,0.64999997615814209,0.25
151,0.20000000298023224,0,-2.7999999523162842,0.20000000298023224,0.60000002384185791,-2.2000000476837158,0.20000000298023224,0.60000002384185791,-2.7999999523162842,-1,0,0,0.40000000596046448,0.64999997615814209,0.25
152,0.80000001192092896,0,-2.7999999523162842,0.80000001192092896,0.60000002384185791,-2.7999999523162842,0.80000001192092896,0.60000002384185791,-2.2000000476837158,1,0,0,0.40000000596046448,0.64999997615814209,0.25
153,0.80000001192092896,0,-2.7999999523162842,0.80000001192092896,0.60000002384185791,-2.2000000476837158,0.80000001192092896,0,-2.2000000476837158,1,0,0,0.40000000596046448,0.64999997615814209,0.25
154,0.20000000298023224,0,-2.7999999523162842,0.80000001192092896,0,-2.7999999523162842,0.80000001192092896,0,-2.2000000476837158,0,-1,0,0.40000000596046448,0.64999997615814209,0.25
155,0.20000000298023224,0,-2.7999999523162842,0.80000001192092896,0,-2.2000000476837158,0.20000000298023224,0,-2.2000000476837158,0,-1,0,0.40000000596046448,0.64999997615814209,0.25
156,0.20000000298023224,0.60000002384185791,-2.7999999523162842,0.20000000298023224,0.60000002384185791,-2.2000000476837158,0.80000001192092896,0.60000002384185791,-2.2000000476837158,0,1,0,0.40000000596046448,0.64999997615814209,0.25
157,0.20000000298023224,0.60000002384185791,-2.7999999523162842,0.80000001192092896,0.60000002384185791,-2.2000000476837158,0.80000001192092896,0.60000002384185791,-2.7999999523162842,0,1,0,0.40000000596046448,0.64999997615814209,0.25
158,1.2000000476837158,0,-2.7999999523162842,1.2000000476837158,0.60000002384185791,-2.7999999523162842,1.7999999523162842,0.60000002384185791,-2.7999999523162842,0,0,-1,0.5,0.72000002861022949,0.33000001311302185
159,1.2000000476837158,0,-2.7999999523162842,1.7999999523162842,0.60000002384185791,-2.7999999523162842,1.7999999523162842,0,-2.7999999523162842,0,0,-1,0.5,0.72000002861022949,0.33000001311302185
160,1.2000000476837158,0,-2.2000000476837158,1.7999999523162842,0,-2.2000000476837158,1.7999999523162842,0.60000002384185791,-2.2000000476837158,0,0,1,0.5,0.72000002861022949,0.33000001311302185
161,1.2000000476837158,0,-2.2000000476837158,1.7999999523162842,0.60000002384185791,-2.2000000476837158,1.2000000476837158,0.60000002384185791,-2.2000000476837158,0,0,1,0.5,0.72000002861022949,0.33000001311302185
162,1.2000000476837158,0,-2.7999999523162842,1.2000000476837158,0,-2.2000000476837158,1.2000000476837158,0.60000002384185791,-2.2000000476837158,-1,0,0,0.5,0.72000002861022949,0.33000001311302185
163,1.2000000476837158,0,-2.7999999523162842,1.2000000476837158,0.60000002384185791,-2.2000000476837158,1.2000000476837158,0.60000002384185791,-2.7999999523162842,-1,0,0,0.5,0.72000002861022949,0.33000001311302185
164,1.7999999523162842,0,-2.7999999523162842,1.7999999523162842,0.60000002384185791,-2.7999999523162842,1.7999999523162842,0.60000002384185791,-2.2000000476837158,1,0,0,0.5,0.72000002861022949,0.33000001311302185
165,1.7999999523162842,0,-2.7999999523162842,1.7999999523162842,0.60000002384185791,-2.2000000476837158,1.7999999523162842,0,-2.2000000476837158,1,0,0,0.5,0.72000002861022949,0.33000001311302185
166,1.2000000476837158,0,-2.7999999523162842,1.7999999523162842,0,-2.7999999523162842,1.7999999523162842,0,-2.2000000476837158,0,-1,0,0.5,0.72000002861022949,0.33000001311302185
167,1.2000000476837158,0,-2.7999999523162842,1.7999999523162842,0,-2.2000000476837158,1.2000000476837158,0,-2.2000000476837158,0,-1,0,0.5,0.72000002861022949,0.33000001311302185
168,1.2000000476837158,0.60000002384185791,-2.7999999523162842,1.2000000476837158,0.60000002384185791,-2.2000000476837158,1.7999999523162842,0.60000002384185791,-2.2000000476837158,0,1,0,0.5,0.72000002861022949,0.33000001311302185
169,1.2000000476837158,0.60000002384185791,-2.7999999523162842,1.7999999523162842,0.60000002384185791,-2.2000000476837158,1.7999999523162842,0.60000002384185791,-2.7999999523162842,0,1,0,0.5,0.72000002861022949,0.33000001311302185
170,2.2000000476837158,0,-2.7999999523162842,2.2000000476837158,0.60000002384185791,-2.7999999523162842,2.7999999523162842,0.60000002384185791,-2.7999999523162842,0,0,-1,0.60000002384185791,0.30000001192092896,0.40999999642372131
171,2.2000000476837158,0,-2.7999999523162842,2.7999999523162842,0.60000002384185791,-2.7999999523162842,2.7999999523162842,0,-2.7999999523162842,0,0,-1,0.60000002384185791,0.30000001192092896,0.40999999642372131
172,2.2000000476837158,0,-2.2000000476837158,2.7999999523162842,0,-2.2000000476837158,2.7999999523162842,0.60000002384185791,-2.2000000476837158,0,0,1,0.60000002384185791,0.30000001192092896,0.40999999642372131
173,2.2000000476837158,0,-2.2000000476837158,2.7999999523162842,0.60000002384185791,-2.2000000476837158,2.2000000476837158,0.60000002384185791,-2.2000000476837158,0,0,1,0.60000002384185791,0.30000001192092896,0.40999999642372131
174,2.2000000476837158,0,-2.7999999523162842,2.2000000476837158,0,-2.2000000476837158,2.2000000476837158,0.60000002384185791,-2.2000000476837158,-1,0,0,0.60000002384185791,0.30000001192092896,0.40999999642372131
175,2.2000000476837158,0,-2.7999999523162842,2.2000000476837158,0.60000002384185791,-2.2000000476837158,2.2000000476837158,0.60000002384185791,-2.7999999523162842,-1,0,0,0.60000002384185791,0.30000001192092896,0.40999999642372131
176,2.7999999523162842,0,-2.7999999523162842,2.7999999523162842,0.60000002384185791,-2.7999999523162842,2.7999999523162842,0.60000002384185791,-2.2000000476837158,1,0,0,0.60000002384185791,0.30000001192092896,0.40999999642372131
177,2.7999999523162842,0,-2.7999999523162842,2.7999999523162842,0.60000002384185791,-2.2000000476837158,2.7999999523162842,0,-2.2000000476837158,1,0,0,0.60000002384185791,0.30000001192092896,0.40999999642372131
178,2.2000000476837158,0,-2.7999999523162842,2.7999999523162842,0,-2.7999999523162842,2.7999999523162842,0,-2.2000000476837158,0,-1,0,0.60000002384185791,0.30000001192092896,0.40999999642372131
179,2.2000000476837158,0,-2.7999999523162842,2.7999999523162842,0,-2.2000000476837158,2.2000000476837158,0,-2.2000000476837158,0,-1,0,0.60000002384185791,0.30000001192092896,0.40999999642372131
180,2.2000000476837158,0.60000002384185791,-2.7999999523162842,2.2000000476837158,0.60000002384185791,-2.2000000476837158,2.7999999523162842,0.60000002384185791,-2.2000000476837158,0,1,0,0.60000002384185791,0.30000001192092896,0.40999999642372131
181,2.2000000476837158,0.60000002384185791,-2.7999999523162842,2.7999999523162842,0.60000002384185791,-2.2000000476837158,2.7999999523162842,0.60000002384185791,-2.7999999523162842,0,1,0,0.60000002384185791,0.30000001192092896,0.40999999642372131
182,3.2000000476837158,0,-2.7999999523162842,3.2000000476837158,0.60000002384185791,-2.7999999523162842,3.7999999523162842,0.60000002384185791,-2.7999999523162842,0,0,-1,0.20000000298023224,0.37000000476837158,0.49000000953674316
183,3.2000000476837158,0,-2.7999999523162842,3.7999999523162842,0.60000002384185791,-2.7999999523162842,3.7999999523162842,0,-2.7999999523162842,0,0,-1,0.20000000298023224,0.37000000476837158,0.49000000953674316
184,3.2000000476837158,0,-2.2000000476837158,3.7999999523162842,0,-2.2000000476837158,3.7999999523162842,0.60000002384185791,-2.2000000476837158,0,0,1,0.20000000298023224,0.37000000476837158,0.49000000953674316
185,3.2000000476837158,0,-2.2000000476837158,3.7999999523162842,0.60000002384185791,-2.2000000476837158,3.2000000476837158,0.60000002384185791,-2.2000000476837158,0,0,1,0.20000000298023224,0.37000000476837158,0.49000000953674316
186,3.2000000476837158,0,-2.7999999523162842,3.2000000476837158,0,-2.2000000476837158,3.2000000476837158,0.60000002384185791,-2.2000000476837158,-1,0,0,0.20000000298023224,0.37000000476837158,0.49000000953674316
187,3.2000000476837158,0,-2.7999999523162842,3.2000000476837158,0.60000002384185791,-2.2000000476837158,3.2000000476837158,0.60000002384185791,-2.7999999523162842,-1,0,0,0.20000000298023224,0.37000000476837158,0.49000000953674316
188,3.7999999523162842,0,-2.7999999523162842,3.7999999523162842,0.60000002384185791,-2.7999999523162842,3.7999999523162842,0.60000002384185791,-2.2000000476837158,1,0,0,0.20000000298023224,0.37000000476837158,0.49000000953674316
189,3.7999999523162842,0,-2.7999999523162842,3.7999999523162842,0.60000002384185791,-2.2000000476837158,3.7999999523162842,0,-2.2000000476837158,1,0,0,0.20000000298023224,0.37000000476837158,0.49000000953674316
190,3.2000000476837158,0,-2.7999999523162842,3.7999999523162842,0,-2.7999999523162842,3.7999999523162842,0,-2.2000000476837158,0,-1,0,0.20000000298023224,0.37000000476837158,0.49000000953674316
191,3.2000000476837158,0,-2.7999999523162842,3.7999999523162842,0,-2.2000000476837158,3.2000000476837158,0,-2.2000000476837158,0,-1,0,0.20000000298023224,0.37000000476837158,0.49000000953674316
192,3.2000000476837158,0.60000002384185791,-2.7999999523162842,3.2000000476837158,0.60000002384185791,-2.2000000476837158,3.7999999523162842,0.60000002384185791,-2.2000000476837158,0,1,0,0.20000000298023224,0.37000000476837158,0.49000000953674316
193,3.2000000476837158,0.60000002384185791,-2.7999999523162842,3.7999999523162842,0.60000002384185791,-2.2000000476837158,3.7999999523162842,0.60000002384185791,-2.7999999523162842,0,1,0,0.20000000298023224,0.37000000476837158,0.49000000953674316
194,-3.7999999523162842,0,-1.7999999523162842,-3.7999999523162842,0.60000002384185791,-1.7999999523162842,-3.2000000476837158,0.60000002384185791,-1.7999999523162842,0,0,-1,0.30000001192092896,0.43999999761581421,0.56999999284744263
195,-3.7999999523162842,0,-1.7999999523162842,-3.2000000476837158,0.60000002384185791,-1.7999999523162842,-3.2000000476837158,0,-1.7999999523162842,0,0,-1,0.30000001192092896,0.43999999761581421,0.56999999284744263
196,-3.7999999523162842,0,-1.2000000476837158,-3.2000000476837158,0,-1.2000000476837158,-3.2000000476837158,0.60000002384185791,-1.2000000476837158,0,0,1,0.30000001192092896,0.43999999761581421,0.56999999284744263
197,-3.7999999523162842,0,-1.2000000476837158,-3.2000000476837158,0.60000002384185791,-1.2000000476837158,-3.7999999523162842,0.60000002384185791,-1.2000000476837158,0,0,1,0.30000001192092896,0.43999999761581421,0.56999999284744263
198,-3.7999999523162842,0,-1.7999999523162842,-3.7999999523162842,0,-1.2000000476837158,-3.7999999523162842,0.60000002384185791,-1.2000000476837158,-1,0,0,0.30000001192092896,0.43999999761581421,0.56999999284744263
199,-3.7999999523162842,0,-1.7999999523162842,-3.7999999523162842,0.60000002384185791,-1.2000000476837158,-3.7999999523162842,0.60000002384185791,-1.7999999523162842,-1,0,0,0.30000001192092896,0.43999999761581421,0.56999999284744263
200,-3.2000000476837158,0,-1.7999999523162842,-3.2000000476837158,0.60000002384185791,-1.7999999523162842,-3.2000000476837158,0.60000002384185791,-1.2000000476837158,1,0,0,0.30000001192092896,0.43999999761581421,0.56999999284744263
201,-3.2000000476837158,0,-1.7999999523162842,-3.2000000476837158,0.60000002384185791,-1.2000000476837158,-3.2000000476837158,0,-1.2000000476837158,1,0,0,0.30000001192092896,0.43999999761581421,0.56999999284744263
202,-3.7999999523162842,0,-1.7999999523162842,-3.2000000476837158,0,-1.7999999523162842,-3.2000000476837158,0,-1.2000000476837158,0,-1,0,0.30000001192092896,0.43999999761581421,0.56999999284744263
203,-3.7999999523162842,0,-1.7999999523162842,-3.2000000476837158,0,-1.2000000476837158,-3.7999999523162842,0,-1.2000000476837158,0,-1,0,0.30000001192092896,0.43999999761581421,0.56999999284744263
204,-3.7999999523162842,0.60000002384185791,-1.7999999523162842,-3.7999999523162842,0.60000002384185791,-1.2000000476837158,-3.2000000476837158,0.60000002384185791,-1.2000000476837158,0,1,0,0.30000001192092896,0.43999999761581421,0.56999999284744263
205,-3.7999999523162842,0.60000002384185791,-1.7999999523162842,-3.2000000476837158,0.60000002384185791,-1.2000000476837158,-3.2000000476837158,0.60000002384185791,-1.7999999523162842,0,1,0,0.30000001192092896,0.43999999761581421,0.56999999284744263
206,-2.7999999523162842,0,-1.7999999523162842,-2.7999999523162842,0.60000002384185791,-1.7999999523162842,-2.2000000476837158,0.60000002384185791,-1.7999999523162842,0,0,-1,0.40000000596046448,0.50999999046325684,0.64999997615814209
207,-2.7999999523162842,0,-1.7999999523162842,-2.2000000476837158,0.60000002384185791,-1.7999999523162842,-2.2000000476837158,0,-1.7999999523162842,0,0,-1,0.40000000596046448,0.50999999046325684,0.64999997615814209
208,-2.7999999523162842,0,-1.2000000476837158,-2.2000000476837158,0,-1.2000000476837158,-2.2000000476837158,0.60000002384185791,-1.2000000476837158,0,0,1,0.40000000596046448,0.50999999046325684,0.64999997615814209
209,-2.7999999523162842,0,-1.2000000476837158,-2.2000000476837158,0.60000002384185791,-1.2000000476837158,-2.7999999523162842,0.60000002384185791,-1.2000000476837158,0,0,1,0.40000000596046448,0.50999999046325684,0.64999997615814209
210,-2.7999999523162842,0,-1.7999999523162842,-2.7999999523162842,0,-1.2000000476837158,-2.7999999523162842,0.60000002384185791,-1.2000000476837158,-1,0,0,0.40000000596046448,0.50999999046325684,0.64999997615814209
211,-2.7999999523162842,0,-1.7999999523162842,-2.7999999523162842,0.60000002384185791,-1.2000000476837158,-2.7999999523162842,0.60000002384185791,-1.7999999523162842,-1,0,0,0.40000000596046448,0.50999999046325684,0.64999997615814209
212,-2.2000000476837158,0,-1.7999999523162842,-2.2000000476837158,0.60000002384185791,-1.7999999523162842,-2.2000000476837158,0.60000002384185791,-1.2000000476837158,1,0,0,0.40000000596046448,0.50999999046325684,0.64999997615814209
213,-2.2000000476837158,0,-1.7999999523162842,-2.2000000476837158,0.60000002384185791,-1.2000000476837158,-2.2000000476837158,0,-1.2000000476837158,1,0,0,0.40000000596046448,0.50999999046325684,0.64999997615814209
214,-2.7999999523162842,0,-1.7999999523162842,-2.2000000476837158,0,-1.7999999523162842,-2.2000000476837158,0,-1.2000000476837158,0,-1,0,0.40000000596046448,0.50999999046325684,0.64999997615814209
215,-2.7999999523162842,0,-1.7999999523162842,-2.2000000476837158,0,-1.2000000476837158,-2.7999999523162842,0,-1.2000000476837158,0,-1,0,0.40000000596046448,0.50999999046325684,0.64999997615814209
216,-2.7999999523162842,0.60000002384185791,-1.7999999523162842,-2.7999999523162842,0.60000002384185791,-1.2000000476837158,-2.2000000476837158,0.60000002384185791,-1.2000000476837158,0,1,0,0.40000000596046448,0.50999999046325684,0.64999997615814209
217,-2.7999999523162842,0.60000002384185791,-1.7999999523162842,-2.2000000476837158,0.60000002384185791,-1.2000000476837158,-2.2000000476837158,0.60000002384185791,-1.7999999523162842,0,1,0,0.40000000596046448,0.50999999046325684,0.64999997615814209
218,-1.7999999523162842,0,-1.7999999523162842,-1.7999999523162842,0.60000002384185791,-1.7999999523162842,-1.2000000476837158,0.60000002384185791,-1.7999999523162842,0,0,-1,0.5,0.57999998331069946,0.25
219,-1.7999999523162842,0,-1.7999999523162842,-1.2000000476837158,0.60000002384185791,-1.7999999523162842,-1.2000000476837158,0,-1.7999999523162842,0,0,-1,0.5,0.57999998331069946,0.25
220,-1.7999999523162842,0,-1.2000000476837158,-1.2000000476837158,0,-1.2000000476837158,-1.2000000476837158,0.60000002384185791,-1.2000000476837158,0,0,1,0.5,0.57999998331069946,0.25
221,-1.7999999523162842,0,-1.2000000476837158,-1.2000000476837158,0.60000002384185791,-1.2000000476837158,-1.7999999523162842,0.60000002384185791,-1.2000000476837158,0,0,1,0.5,0.57999998331069946,0.25
222,-1.7999999523162842,0,-1.7999999523162842,-1.7999999523162842,0,-1.2000000476837158,-1.7999999523162842,0.60000002384185791,-1.2000000476837158,-1,0,0,0.5,0.57999998331069946,0.25
223,-1.7999999523162842,0,-1.7999999523162842,-1.7999999523162842,0.60000002384185791,-1.2000000476837158,-1.7999999523162842,0.60000002384185791,-1.7999999523162842,-1,0,0,0.5,0.57999998331069946,0.25
224,-1.2000000476837158,0,-1.7999999523162842,-1.2000000476837158,0.60000002384185791,-1.7999999523162842,-1.2000000476837158,0.60000002384185791,-1.2000000476837158,1,0,0,0.5,0.57999998331069946,0.25
225,-1.2000000476837158,0,-1.7999999523162842,-1.2000000476837158,0.60000002384185791,-1.2000000476837158,-1.2000000476837158,0,-1.2000000476837158,1,0,0,0.5,0.57999998331069946,0.25
226,-1.7999999523162842,0,-1.7999999523162842,-1.2000000476837158,0,-1.7999999523162842,-1.2000000476837158,0,-1.2000000476837158,0,-1,0,0.5,0.57999998331069946,0.25
227,-1.7999999523162842,0,-1.7999999523162842,-1.2000000476837158,0,-1.2000000476837158,-1.7999999523162842,0,-1.2000000476837158,0,-1,0,0.5,0.57999998331069946,0.25
228,-1.7999999523162842,0.60000002384185791,-1.7999999523162842,-1.7999999523162842,0.60000002384185791,-1.2000000476837158,-1.2000000476837158,0.60000002384185791,-1.2000000476837158,0,1,0,0.5,0.57999998331069946,0.25
229,-1.7999999523162842,0.60000002384185791,-1.7999999523162842,-1.2000000476837158,0.60000002384185791,-1.2000000476837158,-1.2000000476837158,0.60000002384185791,-1.7999999523162842,0,1,0,0.5,0.57999998331069946,0.25
230,-0.80000001192092896,0,-1.7999999523162842,-0.80000001192092896,0.60000002384185791,-1.7999999523162842,-0.20000000298023224,0.60000002384185791,-1.7999999523162842,0,0,-1,0.60000002384185791,0.64999997615814209,0.33000001311302185
231,-0.80000001192092896,0,-1.7999999523162842,-0.20000000298023224,0.60000002384185791,-1.7999999523162842,-0.20000000298023224,0,-1.7999999523162842,0,0,-1,0.60000002384185791,0.64999997615814209,0.33000001311302185
232,-0.80000001192092896,0,-1.2000000476837158,-0.20000000298023224,0,-1.2000000476837158,-0.20000000298023224,0.60000002384185791,-1.2000000476837158,0,0,1,0.60000002384185791,0.64999997615814209,0.33000001311302185
233,-0.80000001192092896,0,-1.2000000476837158,-0.20000000298023224,0.60000002384185791,-1.2000000476837158,-0.80000001192092896,0.60000002384185791,-1.2000000476837158,0,0,1,0.60000002384185791,0.64999997615814209,0.33000001311302185
234,-0.80000001192092896,0,-1.7999999523162842,-0.80000001192092896,0,-1.2000000476837158,-0.80000001192092896,0.60000002384185791,-1.2000000476837158,-1,0,0,0.60000002384185791,0.64999997615814209,0.33000001311302185
235,-0.80000001192092896,0,-1.7999999523162842,-0.80000001192092896,0.60000002384185791,-1.2000000476837158,-0.80000001192092896,0.60000002384185791,-1.7999999523162842,-1,0,0,0.60000002384185791,0.64999997615814209,0.33000001311302185
236,-0.20000000298023224,0,-1.7999999523162842,-0.20000000298023224,0.60000002384185791,-1.7999999523162842,-0.20000000298023224,0.60000002384185791,-1.2000000476837158,1,0,0,0.60000002384185791,0.64999997615814209,0.33000001311302185
237,-0.20000000298023224,0,-1.7999999523162842,-0.20000000298023224,0.60000002384185791,-1.2000000476837158,-0.20000000298023224,0,-1.2000000476837158,1,0,0,0.60000002384185791,0.64999997615814209,0.33000001311302185
238,-0.80000001192092896,0,-1.7999999523162842,-0.20000000298023224,0,-1.7999999523162842,-0.20000000298023224,0,-1.2000000476837158,0,-1,0,0.60000002384185791,0.64999997615814209,0.33000001311302185
239,-0.80000001192092896,0,-1.7999999523162842,-0.20000000298023224,0,-1.2000000476837158,-0.80000001192092896,0,-1.2000000476837158,0,-1,0,0.60000002384185791,0.64999997615814209,0.33000001311302185
240,-0.80000001192092896,0.60000002384185791,-1.7999999523162842,-0.80000001192092896,0.60000002384185791,-1.2000000476837158,-0.20000000298023224,0.60000002384185791,-1.2000000476837158,0,1,0,0.60000002384185791,0.64999997615814209,0.33000001311302185
241,-0.80000001192092896,0.60000002384185791,-1.7999999523162842,-0.20000000298023224,0.60000002384185791,-1.2000000476837158,-0.20000000298023224,0.60000002384185791,-1.7999999523162842,0,1,0,0.60000002384185791,0.64999997615814209,0.33000001311302185
242,0.20000000298023224,0,-1.7999999523162842,0.20000000298023224,0.60000002384185791,-1.7999999523162842,0.80000001192092896,0.60000002384185791,-1.7999999523162842,0,0,-1,0.20000000298023224,0.72000002861022949,0.40999999642372131
243,0.20000000298023224,0,-1.7999999523162842,0.80000001192092896,0.60000002384185791,-1.7999999523162842,0.80000001192092896,0,-1.7999999523162842,0,0,-1,0.20000000298023224,0.72000002861022949,0.40999999642372131
244,0.20000000298023224,0,-1.2000000476837158,0.80000001192092896,0,-1.2000000476837158,0.80000001192092896,0.60000002384185791,-1.2000000476837158,0,0,1,0.20000000298023224,0.72000002861022949,0.40999999642372131
245,0.20000000298023224,0,-1.2000000476837158,0.80000001192092896,0.60000002384185791,-1.2000000476837158,0.20000000298023224,0.60000002384185791,-1.2000000476837158,0,0,1,0.20000000298023224,0.72000002861022949,0.40999999642372131
246,0.20000000298023224,0,-1.7999999523162842,0.20000000298023224,0,-1.2000000476837158,0.20000000298023224,0.60000002384185791,-1.2000000476837158,-1,0,0,0.20000000298023224,0.72000002861022949,0.40999999642372131
247,0.20000000298023224,0,-1.7999999523162842,0.20000000298023224,0.60000002384185791,-1.2000000476837158,0.20000000298023224,0.60000002384185791,-1.7999999523162842,-1,0,0,0.20000000298023224,0.72000002861022949,0.40999999642372131
248,0.80000001192092896,0,-1.7999999523162842,0.80000001192092896,0.60000002384185791,-1.7999999523162842,0.80000001192092896,0.60000002384185791,-1.2000000476837158,1,0,0,0.20000000298023224,0.72000002861022949,0.40999999642372131
249,0.80000001192092896,0,-1.7999999523162842,0.80000001192092896,0.60000002384185791,-1.2000000476837158,0.80000001192092896,0,-1.2000000476837158,1,0,0,0.20000000298023224,0.72000002861022949,0.40999999642372131
250,0.20000000298023224,0,-1.7999999523162842,0.80000001192092896,0,-1.7999999523162842,0.80000001192092896,0,-1.2000000476837158,0,-1,0,0.20000000298023224,0.72000002861022949,0.40999999642372131
251,0.20000000298023224,0,-1.7999999523162842,0.80000001192092896,0,-1.2000000476837158,0.20000000298023224,0,-1.2000000476837158,0,-1,0,0.20000000298023224,0.72000002861022949,0.40999999642372131
252,0.20000000298023224,0.60000002384185791,-1.7999999523162842,0.20000000298023224,0.60000002384185791,-1.2000000476837158,0.80000001192092896,0.60000002384185791,-1.2000000476837158,0,1,0,0.20000000298023224,0.72000002861022949,0.40999999642372131
253,0.20000000298023224,0.60000002384185791,-1.7999999523162842,0.80000001192092896,0.60000002384185791,-1.2000000476837158,0.80000001192092896,0.60000002384185791,-1.7999999523162842,0,1,0,0.20000000298023224,0.72000002861022949,0.40999999642372131
254,1.2000000476837158,0,-1.7999999523162842,1.2000000476837158,0.60000002384185791,-1.7999999523162842,1.7999999523162842,0.60000002384185791,-1.7999999523162842,0,0,-1,0.30000001192092896,0.30000001192092896,0.49000000953674316
255,1.2000000476837158,0,-1.7999999523162842,1.7999999523162842,0.60000002384185791,-1.7999999523162842,1.7999999523162842,0,-1.7999999523162842,0,0,-1,0.30000001192092896,0.30000001192092896,0.49000000953674316
256,1.2000000476837158,0,-1.2000000476837158,1.7999999523162842,0,-1.2000000476837158,1.7999999523162842,0.60000002384185791,-1.2000000476837158,0,0,1,0.30000001192092896,0.30000001192092896,0.49000000953674316
257,1.2000000476837158,0,-1.2000000476837158,1.7999999523162842,0.60000002384185791,-1.2000000476837158,1.2000000476837158,0.60000002384185791,-1.2000000476837158,0,0,1,0.30000001192092896,0.30000001192092896,0.49000000953674316
258,1.2000000476837158,0,-1.7999999523162842,1.2000000476837158,0,-1.2000000476837158,1.2000000476837158,0.60000002384185791,-1.2000000476837158,-1,0,0,0.30000001192092896,0.30000001192092896,0.49000000953674316
259,1.2000000476837158,0,-1.7999999523162842,1.2000000476837158,0.60000002384185791,-1.2000000476837158,1.2000000476837158,0.60000002384185791,-1.7999999523162842,-1,0,0,0.30000001192092896,0.30000001192092896,0.49000000953674316
260,1.7999999523162842,0,-1.7999999523162842,1.7999999523162842,0.60000002384185791,-1.7999999523162842,1.7999999523162842,0.60000002384185791,-1.2000000476837158,1,0,0,0.30000001192092896,0.30000001192092896,0.49000000953674316
261,1.7999999523162842,0,-1.7999999523162842,1.7999999523162842,0.60000002384185791,-1.2000000476837158,1.7999999523162842,0,-1.2000000476837158,1,0,0,0.30000001192092896,0.30000001192092896,0.49000000953674316
262,1.2000000476837158,0,-1.7999999523162842,1.7999999523162842,0,-1.7999999523162842,1.7999999523162842,0,-1.2000000476837158,0,-1,0,0.30000001192092896,0.30000001192092896,0.49000000953674316
263,1.2000000476837158,0,-1.7999999523162842,1.7999999523162842,0,-1.2000000476837158,1.2000000476837158,0,-1.2000000476837158,0,-1,0,0.30000001192092896,0.30000001192092896,0.49000000953674316
264,1.2000000476837158,0.60000002384185791,-1.7999999523162842,1.2000000476837158,0.60000002384185791,-1.2000000476837158,1.7999999523162842,0.60000002384185791,-1.2000000476837158,0,1,0,0.30000001192092896,0.30000001192092896,0.49000000953674316
265,1.2000000476837158,0.60000002384185791,-1.7999999523162842,1.7999999523162842,0.60000002384185791,-1.2000000476837158,1.7999999523162842,0.60000002384185791,-1.7999999523162842,0,1,0,0.30000001192092896,0.30000001192092896,0.49000000953674316
266,2.2000000476837158,0,-1.7999999523162842,2.2000000476837158,0.60000002384185791,-1.7999999523162842,2.7999999523162842,0.60000002384185791,-1.7999999523162842,0,0,-1,0.40000000596046448,0.37000000476837158,0.56999999284744263
267,2.2000000476837158,0,-1.7999999523162842,2.7999999523162842,0.60000002384185791,-1.7999999523162842,2.7999999523162842,0,-1.7999999523162842,0,0,-1,0.40000000596046448,0.37000000476837158,0.56999999284744263
268,2.2000000476837158,0,-1.2000000476837158,2.7999999523162842,0,-1.2000000476837158,2.7999999523162842,0.60000002384185791,-1.2000000476837158,0,0,1,0.40000000596046448,0.37000000476837158,0.56999999284744263
269,2.2000000476837158,0,-1.2000000476837158,2.7999999523162842,0.60000002384185791,-1.2000000476837158,2.2000000476837158,0.60000002384185791,-1.2000000476837158,0,0,1,0.40000000596046448,0.37000000476837158,0.56999999284744263
270,2.2000000476837158,0,-1.7999999523162842,2.2000000476837158,0,-1.2000000476837158,2.2000000476837158,0.60000002384185791,-1.2000000476837158,-1,0,0,0.40000000596046448,0.37000000476837158,0.56999999284744263
271,2.2000000476837158,0,-1.7999999523162842,2.2000000476837158,0.60000002384185791,-1.2000000476837158,2.2000000476837158,0.60000002384185791,-1.7999999523162842,-1,0,0,0.40000000596046448,0.37000000476837158,0.56999999284744263
272,2.7999999523162842,0,-1.7999999523162842,2.7999999523162842,0.60000002384185791,-1.7999999523162842,2.7999999523162842,0.60000002384185791,-1.2000000476837158,1,0,0,0.40000000596046448,0.37000000476837158,0.56999999284744263
273,2.7999999523162842,0,-1.7999999523162842,2.7999999523162842,0.60000002384185791,-1.2000000476837158,2.7999999523162842,0,-1.2000000476837158,1,0,0,0.40000000596046448,0.37000000476837158,0.56999999284744263
274,2.2000000476837158,0,-1.7999999523162842,2.7999999523162842,0,-1.7999999523162842,2.7999999523162842,0,-1.2000000476837158,0,-1,0,0.40000000596046448,0.37000000476837158,0.56999999284744263
275,2.2000000476837158,0,-1.7999999523162842,2.7999999523162842,0,-1.2000000476837158,2.2000000476837158,0,-1.2000000476837158,0,-1,0,0.40000000596046448,0.37000000476837158,0.56999999284744263
276,2.2000000476837158,0.60000002384185791,-1.7999999523162842,2.2000000476837158,0.60000002384185791,-1.2000000476837158,2.7999999523162842,0.60000002384185791,-1.2000000476837158,0,1,0,0.40000000596046448,0.37000000476837158,0.56999999284744263
277,2.2000000476837158,0.60000002384185791,-1.7999999523162842,2.7999999523162842,0.60000002384185791,-1.2000000476837158,2.7999999523162842,0.60000002384185791,-1.7999999523162842,0,1,0,0.40000000596046448,0.37000000476837158,0.56999999284744263
278,3.2000000476837158,0,-1.7999999523162842,3.2000000476837158,0.60000002384185791,-1.7999999523162842,3.7999999523162842,0.60000002384185791,-1.7999999523162842,0,0,-1,0.5,0.43999999761581421,0.64999997615814209
279,3.2000000476837158,0,-1.7999999523162842,3.7999999523162842,0.60000002384185791,-1.7999999523162842,3.7999999523162842,0,-1.7999999523162842,0,0,-1,0.5,0.43999999761581421,0.64999997615814209
280,3.2000000476837158,0,-1.2000000476837158,3.7999999523162842,0,-1.2000000476837158,3.7999999523162842,0.60000002384185791,-1.2000000476837158,0,0,1,0.5,0.43999999761581421,0.64999997615814209
281,3.2000000476837158,0,-1.2000000476837158,3.7999999523162842,0.60000002384185791,-1.2000000476837158,3.2000000476837158,0.60000002384185791,-1.2000000476837158,0,0,1,0.5,0.43999999761581421,0.64999997615814209
282,3.2000000476837158,0,-1.7999999523162842,3.2000000476837158,0,-1.2000000476837158,3.2000000476837158,0.60000002384185791,-1.2000000476837158,-1,0,0,0.5,0.43999999761581421,0.64999997615814209
283,3.2000000476837158,0,-1.7999999523162842,3.2000000476837158,0.60000002384185791,-1.2000000476837158,3.2000000476837158,0.60000002384185791,-1.7999999523162842,-1,0,0,0.5,0.43999999761581421,0.64999997615814209
284,3.7999999523162842,0,-1.7999999523162842,3.7999999523162842,0.60000002384185791,-1.7999999523162842,3.7999999523162842,0.60000002384185791,-1.2000000476837158,1,0,0,0.5,0.43999999761581421,0.64999997615814209
285,3.7999999523162842,0,-1.7999999523162842,3.7999999523162842,0.60000002384185791,-1.2000000476837158,3.7999999523162842,0,-1.2000000476837158,1,0,0,0.5,0.43999999761581421,0.64999997615814209
286,3.2000000476837158,0,-1.7999999523162842,3.7999999523162842,0,-1.7999999523162842,3.7999999523162842,0,-1.2000000476837158,0,-1,0,0.5,0.43999999761581421,0.64999997615814209
287,3.2000000476837158,0,-1.7999999523162842,3.7999999523162842,0,-1.2000000476837158,3.2000000476837158,0,-1.2000000476837158,0,-1,0,0.5,0.43999999761581421,0.64999997615814209
288,3.2000000476837158,0.60000002384185791,-1.7999999523162842,3.2000000476837158,0.60000002384185791,-1.2000000476837158,3.7999999523162842,0.60000002384185791,-1.2000000476837158,0,1,0,0.5,0.43999999761581421,0.64999997615814209
289,3.2000000476837158,0.60000002384185791,-1.7999999523162842,3.7999999523162842,0.60000002384185791,-1.2000000476837158,3.7999999523162842,0.60000002384185791,-1.7999999523162842,0,1,0,0.5,0.43999999761581421,0.64999997615814209
290,-3.7999999523162842,0,-0.80000001192092896,-3.7999999523162842,0.60000002384185791,-0.80000001192092896,-3.2000000476837158,0.60000002384185791,-0.80000001192092896,0,0,-1,0.60000002384185791,0.50999999046325684,0.25
291,-3.7999999523162842,0,-0.80000001192092896,-3.2000000476837158,0.60000002384185791,-0.80000001192092896,-3.2000000476837158,0,-0.80000001192092896,0,0,-1,0.60000002384185791,0.50999999046325684,0.25
292,-3.7999999523162842,0,-0.20000000298023224,-3.2000000476837158,0,-0.20000000298023224,-3.2000000476837158,0.60000002384185791,-0.20000000298023224,0,0,1,0.60000002384185791,0.50999999046325684,0.25
293,-3.7999999523162842,0,-0.20000000298023224,-3.2000000476837158,0.60000002384185791,-0.20000000298023224,-3.7999999523162842,0.60000002384185791,-0.20000000298023224,0,0,1,0.60000002384185791,0.50999999046325684,0.25
294,-3.7999999523162842,0,-0.80000001192092896,-3.7999999523162842,0,-0.20000000298023224,-3.7999999523162842,0.60000002384185791,-0.20000000298023224,-1,0,0,0.60000002384185791,0.50999999046325684,0.25
295,-3.7999999523162842,0,-0.80000001192092896,-3.7999999523162842,0.60000002384185791,-0.20000000298023224,-3.7999999523162842,0.60000002384185791,-0.80000001192092896,-1,0,0,0.60000002384185791,0.50999999046325684,0.25
296,-3.2000000476837158,0,-0.80000001192092896,-3.2000000476837158,0.60000002384185791,-0.80000001192092896,-3.2000000476837158,0.60000002384185791,-0.20000000298023224,1,0,0,0.60000002384185791,0.50999999046325684,0.25
297,-3.2000000476837158,0,-0.80000001192092896,-3.2000000476837158,0.60000002384185791,-0.20000000298023224,-3.2000000476837158,0,-0.20000000298023224,1,0,0,0.60000002384185791,0.50999999046325684,0.25
298,-3.7999999523162842,0,-0.80000001192092896,-3.2000000476837158,0,-0.80000001192092896,-3.2000000476837158,0,-0.20000000298023224,0,-1,0,0.60000002384185791,0.50999999046325684,0.25
299,-3.7999999523162842,0,-0.80000001192092896,-3.2000000476837158,0,-0.20000000298023224,-3.7999999523162842,0,-0.20000000298023224,0,-1,0,0.60000002384185791,0.50999999046325684,0.25
300,-3.7999999523162842,0.60000002384185791,-0.80000001192092896,-3.7999999523162842,0.60000002384185791,-0.20000000298023224,-3.2000000476837158,0.60000002384185791,-0.20000000298023224,0,1,0,0.60000002384185791,0.50999999046325684,0.25
301,-3.7999999523162842,0.60000002384185791,-0.80000001192092896,-3.2000000476837158,0.60000002384185791,-0.20000000298023224,-3.2000000476837158,0.60000002384185791,-0.80000001192092896,0,1,0,0.60000002384185791,0.50999999046325684,0.25
302,-2.7999999523162842,0,-0.80000001192092896,-2.7999999523162842,0.60000002384185791,-0.80000001192092896,-2.2000000476837158,0.60000002384185791,-0.80000001192092896,0,0,-1,0.20000000298023224,0.57999998331069946,0.33000001311302185
303,-2.7999999523162842,0,-0.80000001192092896,-2.2000000476837158,0.60000002384185791,-0.80000001192092896,-2.2000000476837158,0,-0.80000001192092896,0,0,-1,0.20000000298023224,0.57999998331069946,0.33000001311302185
304,-2.7999999523162842,0,-0.20000000298023224,-2.2000000476837158,0,-0.20000000298023224,-2.2000000476837158,0.60000002384185791,-0.20000000298023224,0,0,1,0.20000000298023224,0.57999998331069946,0.33000001311302185
305,-2.7999999523162842,0,-0.20000000298023224,-2.2000000476837158,0.60000002384185791,-0.20000000298023224,-2.7999999523162842,0.60000002384185791,-0.20000000298023224,0,0,1,0.20000000298023224,0.57999998331069946,0.33000001311302185
306,-2.7999999523162842,0,-0.80000001192092896,-2.7999999523162842,0,-0.20000000298023224,-2.7999999523162842,0.60000002384185791,-0.20000000298023224,-1,0,0,0.20000000298023224,0.57999998331069946,0.33000001311302185
307,-2.7999999523162842,0,-0.80000001192092896,-2.7999999523162842,0.60000002384185791,-0.20000000298023224,-2.7999999523162842,0.60000002384185791,-0.80000001192092896,-1,0,0,0.20000000298023224,0.57999998331069946,0.33000001311302185
308,-2.2000000476837158,0,-0.80000001192092896,-2.2000000476837158,0.60000002384185791,-0.80000001192092896,-2.2000000476837158,0.60000002384185791,-0.20000000298023224,1,0,0,0.20000000298023224,0.57999998331069946,0.33000001311302185
309,-2.2000000476837158,0,-0.80000001192092896,-2.2000000476837158,0.60000002384185791,-0.20000000298023224,-2.2000000476837158,0,-0.20000000298023224,1,0,0,0.20000000298023224,0.57999998331069946,0.33000001311302185
310,-2.7999999523162842,0,-0.80000001192092896,-2.2000000476837158,0,-0.80000001192092896,-2.2000000476837158,0,-0.20000000298023224,0,-1,0,0.20000000298023224,0.57999998331069946,0.33000001311302185
311,-2.7999999523162842,0,-0.80000001192092896,-2.2000000476837158,0,-0.20000000298023224,-2.7999999523162842,0,-0.20000000298023224,0,-1,0,0.20000000298023224,0.57999998331069946,0.33000001311302185
312,-2.7999999523162842,0.60000002384185791,-0.80000001192092896,-2.7999999523162842,0.60000002384185791,-0.20000000298023224,-2.2000000476837158,0.60000002384185791,-0.20000000298023224,0,1,0,0.20000000298023224,0.57999998331069946,0.33000001311302185
313,-2.7999999523162842,0.60000002384185791,-0.80000001192092896,-2.2000000476837158,0.60000002384185791,-0.20000000298023224,-2.2000000476837158,0.60000002384185791,-0.80000001192092896,0,1,0,0.20000000298023224,0.57999998331069946,0.33000001311302185
314,-1.7999999523162842,0,-0.80000001192092896,-1.7999999523162842,0.60000002384185791,-0.80000001192092896,-1.2000000476837158,0.60000002384185791,-0.80000001192092896,0,0,-1,0.30000001192092896,0.64999997615814209,0.40999999642372131
315,-1.7999999523162842,0,-0.80000001192092896,-1.2000000476837158,0.60000002384185791,-0.80000001192092896,-1.2000000476837158,0,-0.80000001192092896,0,0,-1,0.30000001192092896,0.64999997615814209,0.40999999642372131
316,-1.7999999523162842,0,-0.20000000298023224,-1.2000000476837158,0,-0.20000000298023224,-1.2000000476837158,0.60000002384185791,-0.20000000298023224,0,0,1,0.30000001192092896,0.64999997615814209,0.40999999642372131
317,-1.7999999523162842,0,-0.20000000298023224,-1.2000000476837158,0.60000002384185791,-0.20000000298023224,-1.7999999523162842,0.60000002384185791,-0.20000000298023224,0,0,1,0.30000001192092896,0.64999997615814209,0.40999999642372131
318,-1.7999999523162842,0,-0.80000001192092896,-1.7999999523162842,0,-0.20000000298023224,-1.7999999523162842,0.60000002384185791,-0.20000000298023224,-1,0,0,0.30000001192092896,0.64999997615814209,0.40999999642372131
319,-1.7999999523162842,0,-0.80000001192092896,-1.7999999523162842,0.60000002384185791,-0.20000000298023224,-1.7999999523162842,0.60000002384185791,-0.80000001192092896,-1,0,0,0.30000001192092896,0.64999997615814209,0.40999999642372131
320,-1.2000000476837158,0,-0.80000001192092896,-1.2000000476837158,0.60000002384185791,-0.80000001192092896,-1.2000000476837158,0.60000002384185791,-0.20000000298023224,1,0,0,0.30000001192092896,0.64999997615814209,0.40999999642372131
321,-1.2000000476837158,0,-0.80000001192092896,-1.2000000476837158,0.60000002384185791,-0.20000000298023224,-1.2000000476837158,0,-0.20000000298023224,1,0,0,0.30000001192092896,0.64999997615814209,0.40999999642372131
322,-1.7999999523162842,0,-0.80000001192092896,-1.2000000476837158,0,-0.80000001192092896,-1.2000000476837158,0,-0.20000000298023224,0,-1,0,0.30000001192092896,0.64999997615814209,0.40999999642372131
323,-1.7999999523162842,0,-0.80000001192092896,-1.2000000476837158,0,-0.20000000298023224,-1.7999999523162842,0,-0.20000000298023224,0,-1,0,0.30000001192092896,0.64999997615814209,0.40999999642372131
324,-1.7999999523162842,0.60000002384185791,-0.80000001192092896,-1.7999999523162842,0.60000002384185791,-0.20000000298023224,-1.2000000476837158,0.60000002384185791,-0.20000000298023224,0,1,0,0.30000001192092896,0.64999997615814209,0.40999999642372131
325,-1.7999999523162842,0.60000002384185791,-0.80000001192092896,-1.2000000476837158,0.60000002384185791,-0.20000000298023224,-1.2000000476837158,0.60000002384185791,-0.80000001192092896,0,1,0,0.30000001192092896,0.64999997615814209,0.40999999642372131
326,-0.80000001192092896,0,-0.80000001192092896,-0.80000001192092896,0.60000002384185791,-0.80000001192092896,-0.20000000298023224,0.60000002384185791,-0.80000001192092896,0,0,-1,0.40000000596046448,0.72000002861022949,0.49000000953674316
327,-0.80000001192092896,0,-0.80000001192092896,-0.20000000298023224,0.60000002384185791,-0.80000001192092896,-0.20000000298023224,0,-0.80000001192092896,0,0,-1,0.40000000596046448,0.72000002861022949,0.49000000953674316
328,-0.80000001192092896,0,-0.20000000298023224,-0.20000000298023224,0,-0.20000000298023224,-0.20000000298023224,0.60000002384185791,-0.20000000298023224,0,0,1,0.40000000596046448,0.72000002861022949,0.49000000953674316
329,-0.80000001192092896,0,-0.20000000298023224,-0.20000000298023224,0.60000002384185791,-0.20000000298023224,-0.80000001192092896,0.60000002384185791,-0.20000000298023224,0,0,1,0.40000000596046448,0.72000002861022949,0.49000000953674316
330,-0.80000001192092896,0,-0.80000001192092896,-0.80000001192092896,0,-0.20000000298023224,-0.80000001192092896,0.60000002384185791,-0.20000000298023224,-1,0,0,0.40000000596046448,0.72000002861022949,0.49000000953674316
331,-0.80000001192092896,0,-0.80000001192092896,-0.80000001192092896,0.60000002384185791,-0.20000000298023224,-0.80000001192092896,0.60000002384185791,-0.80000001192092896,-1,0,0,0.40000000596046448,0.72000002861022949,0.49000000953674316
332,-0.20000000298023224,0,-0.80000001192092896,-0.20000000298023224,0.60000002384185791,-0.80000001192092896,-0.20000000298023224,0.60000002384185791,-0.20000000298023224,1,0,0,0.40000000596046448,0.72000002861022949,0.49000000953674316
333,-0.20000000298023224,0,-0.80000001192092896,-0.20000000298023224,0.60000002384185791,-0.20000000298023224,-0.20000000298023224,0,-0.20000000298023224,1,0,0,0.40000000596046448,0.72000002861022949,0.49000000953674316
334,-0.80000001192092896,0,-0.80000001192092896,-0.20000000298023224,0,-0.80000001192092896,-0.20000000298023224,0,-0.20000000298023224,0,-1,0,0.40000000596046448,0.72000002861022949,0.49000000953674316
335,-0.80000001192092896,0,-0.80000001192092896,-0.20000000298023224,0,-0.20000000298023224,-0.80000001192092896,0,-0.20000000298023224,0,-1,0,0.40000000596046448,0.72000002861022949,0.49000000953674316
336,-0.80000001192092896,0.60000002384185791,-0.80000001192092896,-0.80000001192092896,0.60000002384185791,-0.20000000298023224,-0.20000000298023224,0.60000002384185791,-0.20000000298023224,0,1,0,0.40000000596046448,0.72000002861022949,0.49000000953674316
337,-0.80000001192092896,0.60000002384185791,-0.80000001192092896,-0.20000000298023224,0.60000002384185791,-0.20000000298023224,-0.20000000298023224,0.60000002384185791,-0.80000001192092896,0,1,0,0.40000000596046448,0.72000002861022949,0.49000000953674316
338,0.20000000298023224,0,-0.80000001192092896,0.20000000298023224,0.60000002384185791,-0.80000001192092896,0.80000001192092896,0.60000002384185791,-0.80000001192092896,0,0,-1,0.5,0.30000001192092896,0.56999999284744263
339,0.20000000298023224,0,-0.80000001192092896,0.80000001192092896,0.60000002384185791,-0.80000001192092896,0.80000001192092896,0,-0.80000001192092896,0,0,-1,0.5,0.30000001192092896,0.56999999284744263
340,0.20000000298023224,0,-0.20000000298023224,0.80000001192092896,0,-0.20000000298023224,0.80000001192092896,0.60000002384185791,-0.20000000298023224,0,0,1,0.5,0.30000001192092896,0.56999999284744263
341,0.20000000298023224,0,-0.20000000298023224,0.80000001192092896,0.60000002384185791,-0.20000000298023224,0.20000000298023224,0.60000002384185791,-0.20000000298023224,0,0,1,0.5,0.30000001192092896,0.56999999284744263
342,0.20000000298023224,0,-0.80000001192092896,0.20000000298023224,0,-0.20000000298023224,0.20000000298023224,0.60000002384185791,-0.20000000298023224,-1,0,0,0.5,0.30000001192092896,0.56999999284744263
343,0.20000000298023224,0,-0.80000001192092896,0.20000000298023224,0.60000002384185791,-0.20000000298023224,0.20000000298023224,0.60000002384185791,-0.80000001192092896,-1,0,0,0.5,0.30000001192092896,0.56999999284744263
344,0.80000001192092896,0,-0.80000001192092896,0.80000001192092896,0.60000002384185791,-0.80000001192092896,0.80000001192092896,0.60000002384185791,-0.20000000298023224,1,0,0,0.5,0.30000001192092896,0.56999999284744263
345,0.80000001192092896,0,-0.80000001192092896,0.80000001192092896,0.60000002384185791,-0.20000000298023224,0.80000001192092896,0,-0.20000000298023224,1,0,0,0.5,0.30000001192092896,0.56999999284744263
346,0.20000000298023224,0,-0.80000001192092896,0.80000001192092896,0,-0.80000001192092896,0.80000001192092896,0,-0.20000000298023224,0,-1,0,0.5,0.30000001192092896,0.56999999284744263
347,0.20000000298023224,0,-0.80000001192092896,0.80000001192092896,0,-0.20000000298023224,0.20000000298023224,0,-0.20000000298023224,0,-1,0,0.5,0.30000001192092896,0.56999999284744263
348,0.20000000298023224,0.60000002384185791,-0.80000001192092896,0.20000000298023224,0.60000002384185791,-0.20000000298023224,0.80000001192092896,0.60000002384185791,-0.20000000298023224,0,1,0,0.5,0.30000001192092896,0.56999999284744263
349,0.20000000298023224,0.60000002384185791,-0.80000001192092896,0.80000001192092896,0.60000002384185791,-0.20000000298023224,0.80000001192092896,0.60000002384185791,-0.80000001192092896,0,1,0,0.5,0.30000001192092896,0.56999999284744263
350,1.2000000476837158,0,-0.80000001192092896,1.2000000476837158,0.60000002384185791,-0.80000001192092896,1.7999999523162842,0.60000002384185791,-0.80000001192092896,0,0,-1,0.60000002384185791,0.37000000476837158,0.64999997615814209
351,1.2000000476837158,0,-0.80000001192092896,1.7999999523162842,0.60000002384185791,-0.80000001192092896,1.7999999523162842,0,-0.80000001192092896,0,0,-1,0.60000002384185791,0.37000000476837158,0.64999997615814209
352,1.2000000476837158,0,-0.20000000298023224,1.7999999523162842,0,-0.20000000298023224,1.7999999523162842,0.60000002384185791,-0.20000000298023224,0,0,1,0.60000002384185791,0.37000000476837158,0.64999997615814209
353,1.2000000476837158,0,-0.20000000298023224,1.7999999523162842,0.60000002384185791,-0.20000000298023224,1.2000000476837158,0.60000002384185791,-0.20000000298023224,0,0,1,0.60000002384185791,0.37000000476837158,0.64999997615814209
354,1.2000000476837158,0,-0.80000001192092896,1.2000000476837158,0,-0.20000000298023224,1.2000000476837158,0.60000002384185791,-0.20000000298023224,-1,0,0,0.60000002384185791,0.37000000476837158,0.64999997615814209
355,1.2000000476837158,0,-0.80000001192092896,1.2000000476837158,0.60000002384185791,-0.20000000298023224,1.2000000476837158,0.60000002384185791,-0.80000001192092896,-1,0,0,0.60000002384185791,0.37000000476837158,0.64999997615814209
356,1.7999999523162842,0,-0.80000001192092896,1.7999999523162842,0.60000002384185791,-0.80000001192092896,1.7999999523162842,0.60000002384185791,-0.20000000298023224,1,0,0,0.60000002384185791,0.37000000476837158,0.64999997615814209
357,1.7999999523162842,0,-0.80000001192092896,1.7999999523162842,0.60000002384185791,-0.20000000298023224,1.7999999523162842,0,-0.20000000298023224,1,0,0,0.60000002384185791,0.37000000476837158,0.64999997615814209
358,1.2000000476837158,0,-0.80000001192092896,1.7999999523162842,0,-0.80000001192092896,1.7999999523162842,0,-0.20000000298023224,0,-1,0,0.60000002384185791,0.37000000476837158,0.64999997615814209
359,1.2000000476837158,0,-0.80000001192092896,1.7999999523162842,0,-0.20000000298023224,1.2000000476837158,0,-0.20000000298023224,0,-1,0,0.60000002384185791,0.37000000476837158,0.64999997615814209
360,1.2000000476837158,0.60000002384185791,-0.80000001192092896,1.2000000476837158,0.60000002384185791,-0.20000000298023224,1.7999999523162842,0.60000002384185791,-0.20000000298023224,0,1,0,0.60000002384185791,0.37000000476837158,0.64999997615814209
361,1.2000000476837158,0.60000002384185791,-0.80000001192092896,1.7999999523162842,0.60000002384185791,-0.20000000298023224,1.7999999523162842,0.60000002384185791,-0.80000001192092896,0,1,0,0.60000002384185791,0.37000000476837158,0.64999997615814209
362,2.2000000476837158,0,-0.80000001192092896,2.2000000476837158,0.60000002384185791,-0.80000001192092896,2.7999999523162842,0.60000002384185791,-0.80000001192092896,0,0,-1,0.20000000298023224,0.43999999761581421,0.25
363,2.2000000476837158,0,-0.80000001192092896,2.7999999523162842,0.60000002384185791,-0.80000001192092896,2.7999999523162842,0,-0.80000001192092896,0,0,-1,0.20000000298023224,0.43999999761581421,0.25
364,2.2000000476837158,0,-0.20000000298023224,2.7999999523162842,0,-0.20000000298023224,2.7999999523162842,0.60000002384185791,-0.20000000298023224,0,0,1,0.20000000298023224,0.43999999761581421,0.25
365,2.2000000476837158,0,-0.20000000298023224,2.7999999523162842,0.60000002384185791,-0.20000000298023224,2.2000000476837158,0.60000002384185791,-0.20000000298023224,0,0,1,0.20000000298023224,0.43999999761581421,0.25
366,2.2000000476837158,0,-0.80000001192092896,2.2000000476837158,0,-0.20000000298023224,2.2000000476837158,0.60000002384185791,-0.20000000298023224,-1,0,0,0.20000000298023224,0.43999999761581421,0.25
367,2.2000000476837158,0,-0.80000001192092896,2.2000000476837158,0.60000002384185791,-0.20000000298023224,2.2000000476837158,0.60000002384185791,-0.80000001192092896,-1,0,0,0.20000000298023224,0.43999999761581421,0.25
368,2.7999999523162842,0,-0.80000001192092896,2.7999999523162842,0.60000002384185791,-0.80000001192092896,2.7999999523162842,0.60000002384185791,-0.20000000298023224,1,0,0,0.20000000298023224,0.43999999761581421,0.25
369,2.7999999523162842,0,-0.80000001192092896,2.7999999523162842,0.60000002384185791,-0.20000000298023224,2.7999999523162842,0,-0.20000000298023224,1,0,0,0.20000000298023224,0.43999999761581421,0.25
370,2.2000000476837158,0,-0.80000001192092896,2.7999999523162842,0,-0.80000001192092896,2.7999999523162842,0,-0.20000000298023224,0,-1,0,0.20000000298023224,0.43999999761581421,0.25
371,2.2000000476837158,0,-0.80000001192092896,2.7999999523162842,0,-0.20000000298023224,2.2000000476837158,0,-0.20000000298023224,0,-1,0,0.20000000298023224,0.43999999761581421,0.25
372,2.2000000476837158,0.60000002384185791,-0.80000001192092896,2.2000000476837158,0.60000002384185791,-0.20000000298023224,2.7999999523162842,0.60000002384185791,-0.20000000298023224,0,1,0,0.20000000298023224,0.43999999761581421,0.25
373,2.2000000476837158,0.60000002384185791,-0.80000001192092896,2.7999999523162842,0.60000002384185791,-0.20000000298023224,2.7999999523162842,0.60000002384185791,-0.80000001192092896,0,1,0,0.20000000298023224,0.43999999761581421,0.25
374,3.2000000476837158,0,-0.80000001192092896,3.2000000476837158,0.60000002384185791,-0.80000001192092896,3.7999999523162842,0.60000002384185791,-0.80000001192092896,0,0,-1,0.30000001192092896,0.50999999046325684,0.33000001311302185
375,3.2000000476837158,0,-0.80000001192092896,3.7999999523162842,0.60000002384185791,-0.80000001192092896,3.7999999523162842,0,-0.80000001192092896,0,0,-1,0.30000001192092896,0.50999999046325684,0.33000001311302185
376,3.2000000476837158,0,-0.20000000298023224,3.7999999523162842,0,-0.20000000298023224,3.7999999523162842,0.60000002384185791,-0.20000000298023224,0,0,1,0.30000001192092896,0.50999999046325684,0.33000001311302185
377,3.2000000476837158,0,-0.20000000298023224,3.7999999523162842,0.60000002384185791,-0.20000000298023224,3.2000000476837158,0.60000002384185791,-0.20000000298023224,0,0,1,0.30000001192092896,0.50999999046325684,0.33000001311302185
378,3.2000000476837158,0,-0.80000001192092896,3.2000000476837158,0,-0.20000000298023224,3.2000000476837158,0.60000002384185791,-0.20000000298023224,-1,0,0,0.30000001192092896,0.50999999046325684,0.33000001311302185
379,3.2000000476837158,0,-0.80000001192092896,3.2000000476837158,0.60000002384185791,-0.20000000298023224,3.2000000476837158,0.60000002384185791,-0.80000001192092896,-1,0,0,0.30000001192092896,0.50999999046325684,0.33000001311302185
380,3.7999999523162842,0,-0.80000001192092896,3.7999999523162842,0.60000002384185791,-0.80000001192092896,3.7999999523162842,0.60000002384185791,-0.20000000298023224,1,0,0,0.30000001192092896,0.50999999046325684,0.33000001311302185
381,3.7999999523162842,0,-0.80000001192092896,3.7999999523162842,0.60000002384185791,-0.20000000298023224,3.7999999523162842,0,-0.20000000298023224,1,0,0,0.30000001192092896,0.50999999046325684,0.33000001311302185
382,3.2000000476837158,0,-0.80000001192092896,3.7999999523162842,0,-0.80000001192092896,3.7999999523162842,0,-0.20000000298023224,0,-1,0,0.30000001192092896,0.50999999046325684,0.33000001311302185
383,3.2000000476837158,0,-0.80000001192092896,3.7999999523162842,0,-0.20000000298023224,3.2000000476837158,0,-0.20000000298023224,0,-1,0,0.30000001192092896,0.50999999046325684,0.33000001311302185
384,3.2000000476837158,0.60000002384185791,-0.80000001192092896,3.2000000476837158,0.60000002384185791,-0.20000000298023224,3.7999999523162842,0.60000002384185791,-0.20000000298023224,0,1,0,0.30000001192092896,0.50999999046325684,0.33000001311302185
385,3.2000000476837158,0.60000002384185791,-0.80000001192092896,3.7999999523162842,0.60000002384185791,-0.20000000298023224,3.7999999523162842,0.60000002384185791,-0.80000001192092896,0,1,0,0.30000001192092896,0.50999999046325684,0.33000001311302185
386,-3.7999999523162842,0,0.20000000298023224,-3.7999999523162842,0.60000002384185791,0.20000000298023224,-3.2000000476837158,0.60000002384185791,0.20000000298023224,0,0,-1,0.40000000596046448,0.57999998331069946,0.40999999642372131
387,-3.7999999523162842,0,0.20000000298023224,-3.2000000476837158,0.60000002384185791,0.20000000298023224,-3.2000000476837158,0,0.20000000298023224,0,0,-1,0.40000000596046448,0.57999998331069946,0.40999999642372131
388,-3.7999999523162842,0,0.80000001192092896,-3.2000000476837158,0,0.80000001192092896,-3.2000000476837158,0.60000002384185791,0.80000001192092896,0,0,1,0.40000000596046448,0.57999998331069946,0.40999999642372131
389,-3.7999999523162842,0,0.80000001192092896,-3.2000000476837158,0.60000002384185791,0.80000001192092896,-3.7999999523162842,0.60000002384185791,0.80000001192092896,0,0,1,0.40000000596046448,0.57999998331069946,0.40999999642372131
390,-3.7999999523162842,0,0.20000000298023224,-3.7999999523162842,0,0.80000001192092896,-3.7999999523162842,0.60000002384185791,0.80000001192092896,-1,0,0,0.40000000596046448,0.57999998331069946,0.40999999642372131
391,-3.7999999523162842,0,0.20000000298023224,-3.7999999523162842,0.60000002384185791,0.80000001192092896,-3.7999999523162842,0.60000002384185791,0.20000000298023224,-1,0,0,0.40000000596046448,0.57999998331069946,0.40999999642372131
392,-3.2000000476837158,0,0.20000000298023224,-3.2000000476837158,0.60000002384185791,0.20000000298023224,-3.2000000476837158,0.60000002384185791,0.80000001192092896,1,0,0,0.40000000596046448,0.57999998331069946,0.40999999642372131
393,-3.2000000476837158,0,0.20000000298023224,-3.2000000476837158,0.60000002384185791,0.80000001192092896,-3.2000000476837158,0,0.80000001192092896,1,0,0,0.40000000596046448,0.57999998331069946,0.40999999642372131
394,-3.7999999523162842,0,0.20000000298023224,-3.2000000476837158,0,0.20000000298023224,-3.2000000476837158,0,0.80000001192092896,0,-1,0,0.40000000596046448,0.57999998331069946,0.40999999642372131
395,-3.7999999523162842,0,0.20000000298023224,-3.2000000476837158,0,0.80000001192092896,-3.7999999523162842,0,0.80000001192092896,0,-1,0,0.40000000596046448,0.57999998331069946,0.40999999642372131
396,-3.7999999523162842,0.60000002384185791,0.20000000298023224,-3.7999999523162842,0.60000002384185791,0.80000001192092896,-3.2000000476837158,0.60000002384185791,0.80000001192092896,0,1,0,0.40000000596046448,0.57999998331069946,0.40999999642372131
397,-3.7999999523162842,0.60000002384185791,0.20000000298023224,-3.2000000476837158,0.60000002384185791,0.80000001192092896,-3.2000000476837158,0.60000002384185791,0.20000000298023224,0,1,0,0.40000000596046448,0.57999998331069946,0.40999999642372131
398,-2.7999999523162842,0,0.20000000298023224,-2.7999999523162842,0.60000002384185791,0.20000000298023224,-2.2000000476837158,0.60000002384185791,0.20000000298023224,0,0,-1,0.5,0.64999997615814209,0.49000000953674316
399,-2.7999999523162842,0,0.20000000298023224,-2.2000000476837158,0.60000002384185791,0.20000000298023224,-2.2000000476837158,0,0.20000000298023224,0,0,-1,0.5,0.64999997615814209,0.49000000953674316
400,-2.7999999523162842,0,0.80000001192092896,-2.2000000476837158,0,0.80000001192092896,-2.2000000476837158,0.60000002384185791,0.80000001192092896,0,0,1,0.5,0.64999997615814209,0.49000000953674316
401,-2.7999999523162842,0,0.80000001192092896,-2.2000000476837158,0.60000002384185791,0.80000001192092896,-2.7999999523162842,0.60000002384185791,0.80000001192092896,0,0,1,0.5,0.64999997615814209,0.49000000953674316
402,-2.7999999523162842,0,0.20000000298023224,-2.7999999523162842,0,0.80000001192092896,-2.7999999523162842,0.60000002384185791,0.80000001192092896,-1,0,0,0.5,0.64999997615814209,0.49000000953674316
403,-2.7999999523162842,0,0.20000000298023224,-2.7999999523162842,0.60000002384185791,0.80000001192092896,-2.7999999523162842,0.60000002384185791,0.20000000298023224,-1,0,0,0.5,0.64999997615814209,0.49000000953674316
404,-2.2000000476837158,0,0.20000000298023224,-2.2000000476837158,0.60000002384185791,0.20000000298023224,-2.2000000476837158,0.60000002384185791,0.80000001192092896,1,0,0,0.5,0.64999997615814209,0.49000000953674316
405,-2.2000000476837158,0,0.20000000298023224,-2.2000000476837158,0.60000002384185791,0.80000001192092896,-2.2000000476837158,0,0.80000001192092896,1,0,0,0.5,0.64999997615814209,0.49000000953674316
406,-2.7999999523162842,0,0.20000000298023224,-2.2000000476837158,0,0.20000000298023224,-2.2000000476837158,0,0.80000001192092896,0,-1,0,0.5,0.64999997615814209,0.49000000953674316
407,-2.7999999523162842,0,0.20000000298023224,-2.2000000476837158,0,0.80000001192092896,-2.7999999523162842,0,0.80000001192092896,0,-1,0,0.5,0.64999997615814209,0.49000000953674316
408,-2.7999999523162842,0.60000002384185791,0.20000000298023224,-2.7999999523162842,0.60000002384185791,0.80000001192092896,-2.2000000476837158,0.60000002384185791,0.80000001192092896,0,1,0,0.5,0.64999997615814209,0.49000000953674316
409,-2.7999999523162842,0.60000002384185791,0.20000000298023224,-2.2000000476837158,0.60000002384185791,0.80000001192092896,-2.2000000476837158,0.60000002384185791,0.20000000298023224,0,1,0,0.5,0.64999997615814209,0.49000000953674316
410,-1.7999999523162842,0,0.20000000298023224,-1.7999999523162842,0.60000002384185791,0.20000000298023224,-1.2000000476837158,0.60000002384185791,0.20000000298023224,0,0,-1,0.60000002384185791,0.72000002861022949,0.56999999284744263
411,-1.7999999523162842,0,0.20000000298023224,-1.2000000476837158,0.60000002384185791,0.20000000298023224,-1.2000000476837158,0,0.20000000298023224,0,0,-1,0.60000002384185791,0.72000002861022949,0.56999999284744263
412,-1.7999999523162842,0,0.80000001192092896,-1.2000000476837158,0,0.80000001192092896,-1.2000000476837158,0.60000002384185791,0.80000001192092896,0,0,1,0.60000002384185791,0.72000002861022949,0.56999999284744263
413,-1.7999999523162842,0,0.80000001192092896,-1.2000000476837158,0.60000002384185791,0.80000001192092896,-1.7999999523162842,0.60000002384185791,0.80000001192092896,0,0,1,0.60000002384185791,0.72000002861022949,0.56999999284744263
414,-1.7999999523162842,0,0.20000000298023224,-1.7999999523162842,0,0.80000001192092896,-1.7999999523162842,0.60000002384185791,0.80000001192092896,-1,0,0,0.60000002384185791,0.72000002861022949,0.56999999284744263
415,-1.7999999523162842,0,0.20000000298023224,-1.7999999523162842,0.60000002384185791,0.80000001192092896,-1.7999999523162842,0.60000002384185791,0.20000000298023224,-1,0,0,0.60000002384185791,0.72000002861022949,0.56999999284744263
416,-1.2000000476837158,0,0.20000000298023224,-1.2000000476837158,0.60000002384185791,0.20000000298023224,-1.2000000476837158,0.60000002384185791,0.80000001192092896,1,0,0,0.60000002384185791,0.72000002861022949,0.56999999284744263
417,-1.2000000476837158,0,0.20000000298023224,-1.2000000476837158,0.60000002384185791,0.80000001192092896,-1.2000000476837158,0,0.80000001192092896,1,0,0,0.60000002384185791,0.72000002861022949,0.56999999284744263
418,-1.7999999523162842,0,0.20000000298023224,-1.2000000476837158,0,0.20000000298023224,-1.2000000476837158,0,0.80000001192092896,0,-1,0,0.60000002384185791,0.72000002861022949,0.56999999284744263
419,-1.7999999523162842,0,0.20000000298023224,-1.2000000476837158,0,0.80000001192092896,-1.7999999523162842,0,0.80000001192092896,0,-1,0,0.60000002384185791,0.72000002861022949,0.56999999284744263
420,-1.7999999523162842,0.60000002384185791,0.20000000298023224,-1.7999999523162842,0.60000002384185791,0.80000001192092896,-1.2000000476837158,0.60000002384185791,0.80000001192092896,0,1,0,0.60000002384185791,0.72000002861022949,0.56999999284744263
421,-1.7999999523162842,0.60000002384185791,0.20000000298023224,-1.2000000476837158,0.60000002384185791,0.80000001192092896,-1.2000000476837158,0.60000002384185791,0.20000000298023224,0,1,0,0.60000002384185791,0.72000002861022949,0.56999999284744263
422,-0.80000001192092896,0,0.20000000298023224,-0.80000001192092896,0.60000002384185791,0.20000000298023224,-0.20000000298023224,0.60000002384185791,0.20000000298023224,0,0,-1,0.20000000298023224,0.30000001192092896,0.64999997615814209
423,-0.80000001192092896,0,0.20000000298023224,-0.20000000298023224,0.60000002384185791,0.20000000298023224,-0.20000000298023224,0,0.20000000298023224,0,0,-1,0.20000000298023224,0.30000001192092896,0.64999997615814209
424,-0.80000001192092896,0,0.80000001192092896,-0.20000000298023224,0,0.80000001192092896,-0.20000000298023224,0.60000002384185791,0.80000001192092896,0,0,1,0.20000000298023224,0.30000001192092896,0.64999997615814209
425,-0.80000001192092896,0,0.80000001192092896,-0.20000000298023224,0.60000002384185791,0.80000001192092896,-0.80000001192092896,0.60000002384185791,0.80000001192092896,0,0,1,0.20000000298023224,0.30000001192092896,0.64999997615814209
426,-0.80000001192092896,0,0.20000000298023224,-0.80000001192092896,0,0.80000001192092896,-0.80000001192092896,0.60000002384185791,0.80000001192092896,-1,0,0,0.20000000298023224,0.30000001192092896,0.64999997615814209
427,-0.80000001192092896,0,0.20000000298023224,-0.80000001192092896,0.60000002384185791,0.80000001192092896,-0.80000001192092896,0.60000002384185791,0.20000000298023224,-1,0,0,0.20000000298023224,0.30000001192092896,0.64999997615814209
428,-0.20000000298023224,0,0.20000000298023224,-0.20000000298023224,0.60000002384185791,0.20000000298023224,-0.20000000298023224,0.60000002384185791,0.80000001192092896,1,0,0,0.20000000298023224,0.30000001192092896,0.64999997615814209
429,-0.20000000298023224,0,0.20000000298023224,-0.20000000298023224,0.60000002384185791,0.80000001192092896,-0.20000000298023224,0,0.80000001192092896,1,0,0,0.20000000298023224,0.30000001192092896,0.64999997615814209
430,-0.80000001192092896,0,0.20000000298023224,-0.20000000298023224,0,0.20000000298023224,-0.20000000298023224,0,0.80000001192092896,0,-1,0,0.20000000298023224,0.30000001192092896,0.64999997615814209
431,-0.80000001192092896,0,0.20000000298023224,-0.20000000298023224,0,0.80000001192092896,-0.80000001192092896,0,0.80000001192092896,0,-1,0,0.20000000298023224,0.30000001192092896,0.64999997615814209
432,-0.80000001192092896,0.60000002384185791,0.20000000298023224,-0.80000001192092896,0.60000002384185791,0.80000001192092896,-0.20000000298023224,0.60000002384185791,0.80000001192092896,0,1,0,0.20000000298023224,0.30000001192092896,0.64999997615814209
433,-0.80000001192092896,0.60000002384185791,0.20000000298023224,-0.20000000298023224,0.60000002384185791,0.80000001192092896,-0.20000000298023224,0.60000002384185791,0.20000000298023224,0,1,0,0.20000000298023224,0.30000001192092896,0.64999997615814209
434,0.20000000298023224,0,0.20000000298023224,0.20000000298023224,0.60000002384185791,0.20000000298023224,0.80000001192092896,0.60000002384185791,0.20000000298023224,0,0,-1,0.30000001192092896,0.37000000476837158,0.25
435,0.20000000298023224,0,0.20000000298023224,0.80000001192092896,0.60000002384185791,0.20000000298023224,0.80000001192092896,0,0.20000000298023224,0,0,-1,0.30000001192092896,0.37000000476837158,0.25
436,0.20000000298023224,0,0.80000001192092896,0.80000001192092896,0,0.80000001192092896,0.80000001192092896,0.60000002384185791,0.80000001192092896,0,0,1,0.30000001192092896,0.37000000476837158,0.25
437,0.20000000298023224,0,0.80000001192092896,0.80000001192092896,0.60000002384185791,0.80000001192092896,0.20000000298023224,0.60000002384185791,0.80000001192092896,0,0,1,0.30000001192092896,0.37000000476837158,0.25
438,0.20000000298023224,0,0.20000000298023224,0.20000000298023224,0,0.80000001192092896,0.20000000298023224,0.60000002384185791,0.80000001192092896,-1,0,0,0.30000001192092896,0.37000000476837158,0.25
439,0.20000000298023224,0,0.20000000298023224,0.20000000298023224,0.60000002384185791,0.80000001192092896,0.20000000298023224,0.60000002384185791,0.20000000298023224,-1,0,0,0.30000001192092896,0.37000000476837158,0.25
440,0.80000001192092896,0,0.20000000298023224,0.80000001192092896,0.60000002384185791,0.20000000298023224,0.80000001192092896,0.60000002384185791,0.80000001192092896,1,0,0,0.30000001192092896,0.37000000476837158,0.25
441,0.80000001192092896,0,0.20000000298023224,0.80000001192092896,0.60000002384185791,0.80000001192092896,0.80000001192092896,0,0.80000001192092896,1,0,0,0.30000001192092896,0.37000000476837158,0.25
442,0.20000000298023224,0,0.20000000298023224,0.80000001192092896,0,0.20000000298023224,0.80000001192092896,0,0.80000001192092896,0,-1,0,0.30000001192092896,0.37000000476837158,0.25
443,0.20000000298023224,0,0.20000000298023224,0.80000001192092896,0,0.80000001192092896,0.20000000298023224,0,0.80000001192092896,0,-1,0,0.30000001192092896,0.37000000476837158,0.25
444,0.20000000298023224,0.60000002384185791,0.20000000298023224,0.20000000298023224,0.60000002384185791,0.80000001192092896,0.80000001192092896,0.60000002384185791,0.80000001192092896,0,1,0,0.30000001192092896,0.37000000476837158,0.25
445,0.20000000298023224,0.60000002384185791,0.20000000298023224,0.80000001192092896,0.60000002384185791,0.80000001192092896,0.80000001192092896,0.60000002384185791,0.20000000298023224,0,1,0,0.30000001192092896,0.37000000476837158,0.25
446,1.2000000476837158,0,0.20000000298023224,1.2000000476837158,0.60000002384185791,0.20000000298023224,1.7999999523162842,0.60000002384185791,0.20000000298023224,0,0,-1,0.40000000596046448,0.43999999761581421,0.33000001311302185
447,1.2000000476837158,0,0.20000000298023224,1.7999999523162842,0.60000002384185791,0.20000000298023224,1.7999999523162842,0,0.20000000298023224,0,0,-1,0.40000000596046448,0.43999999761581421,0.33000001311302185
448,1.2000000476837158,0,0.80000001192092896,1.7999999523162842,0,0.80000001192092896,1.7999999523162842,0.60000002384185791,0.80000001192092896,0,0,1,0.40000000596046448,0.43999999761581421,0.33000001311302185
449,1.2000000476837158,0,0.80000001192092896,1.7999999523162842,0.60000002384185791,0.80000001192092896,1.2000000476837158,0.60000002384185791,0.80000001192092896,0,0,1,0.40000000596046448,0.43999999761581421,0.33000001311302185
450,1.2000000476837158,0,0.20000000298023224,1.2000000476837158,0,0.80000001192092896,1.2000000476837158,0.60000002384185791,0.80000001192092896,-1,0,0,0.40000000596046448,0.43999999761581421,0.33000001311302185
451,1.2000000476837158,0,0.20000000298023224,1.2000000476837158,0.60000002384185791,0.80000001192092896,1.2000000476837158,0.60000002384185791,0.20000000298023224,-1,0,0,0.40000000596046448,0.43999999761581421,0.33000001311302185
452,1.7999999523162842,0,0.20000000298023224,1.7999999523162842,0.60000002384185791,0.20000000298023224,1.7999999523162842,0.60000002384185791,0.80000001192092896,1,0,0,0.40000000596046448,0.43999999761581421,0.33000001311302185
453,1.7999999523162842,0,0.20000000298023224,1.7999999523162842,0.60000002384185791,0.80000001192092896,1.7999999523162842,0,0.80000001192092896,1,0,0,0.40000000596046448,0.43999999761581421,0.33000001311302185
454,1.2000000476837158,0,0.20000000298023224,1.7999999523162842,0,0.20000000298023224,1.7999999523162842,0,0.80000001192092896,0,-1,0,0.40000000596046448,0.43999999761581421,0.33000001311302185
455,1.2000000476837158,0,0.20000000298023224,1.7999999523162842,0,0.80000001192092896,1.2000000476837158,0,0.80000001192092896,0,-1,0,0.40000000596046448,0.43999999761581421,0.33000001311302185
456,1.2000000476837158,0.60000002384185791,0.20000000298023224,1.2000000476837158,0.60000002384185791,0.80000001192092896,1.7999999523162842,0.60000002384185791,0.80000001192092896,0,1,0,0.40000000596046448,0.43999999761581421,0.33000001311302185
457,1.2000000476837158,0.60000002384185791,0.20000000298023224,1.7999999523162842,0.60000002384185791,0.80000001192092896,1.7999999523162842,0.60000002384185791,0.20000000298023224,0,1,0,0.40000000596046448,0.43999999761581421,0.33000001311302185
458,2.2000000476837158,0,0.20000000298023224,2.2000000476837158,0.60000002384185791,0.20000000298023224,2.7999999523162842,0.60000002384185791,0.20000000298023224,0,0,-1,0.5,0.50999999046325684,0.40999999642372131
459,2.2000000476837158,0,0.20000000298023224,2.7999999523162842,0.60000002384185791,0.20000000298023224,2.7999999523162842,0,0.20000000298023224,0,0,-1,0.5,0.50999999046325684,0.40999999642372131
460,2.2000000476837158,0,0.80000001192092896,2.7999999523162842,0,0.80000001192092896,2.7999999523162842,0.60000002384185791,0.80000001192092896,0,0,1,0.5,0.50999999046325684,0.40999999642372131
461,2.2000000476837158,0,0.80000001192092896,2.7999999523162842,0.60000002384185791,0.80000001192092896,2.2000000476837158,0.60000002384185791,0.80000001192092896,0,0,1,0.5,0.50999999046325684,0.40999999642372131
462,2.2000000476837158,0,0.20000000298023224,2.2000000476837158,0,0.80000001192092896,2.2000000476837158,0.60000002384185791,0.80000001192092896,-1,0,0,0.5,0.50999999046325684,0.40999999642372131
463,2.2000000476837158,0,0.20000000298023224,2.2000000476837158,0.60000002384185791,0.80000001192092896,2.2000000476837158,0.60000002384185791,0.20000000298023224,-1,0,0,0.5,0.50999999046325684,0.40999999642372131
464,2.7999999523162842,0,0.20000000298023224,2.7999999523162842,0.60000002384185791,0.20000000298023224,2.7999999523162842,0.60000002384185791,0.80000001192092896,1,0,0,0.5,0.50999999046325684,0.40999999642372131
465,2.7999999523162842,0,0.20000000298023224,2.7999999523162842,0.60000002384185791,0.80000001192092896,2.7999999523162842,0,0.80000001192092896,1,0,0,0.5,0.50999999046325684,0.40999999642372131
466,2.2000000476837158,0,0.20000000298023224,2.7999999523162842,0,0.20000000298023224,2.7999999523162842,0,0.80000001192092896,0,-1,0,0.5,0.50999999046325684,0.40999999642372131
467,2.2000000476837158,0,0.20000000298023224,2.7999999523162842,0,0.80000001192092896,2.2000000476837158,0,0.80000001192092896,0,-1,0,0.5,0.50999999046325684,0.40999999642372131
468,2.2000000476837158,0.60000002384185791,0.20000000298023224,2.2000000476837158,0.60000002384185791,0.80000001192092896,2.7999999523162842,0.60000002384185791,0.80000001192092896,0,1,0,0.5,0.50999999046325684,0.40999999642372131
469,2.2000000476837158,0.60000002384185791,0.20000000298023224,2.7999999523162842,0.60000002384185791,0.80000001192092896,2.7999999523162842,0.60000002384185791,0.20000000298023224,0,1,0,0.5,0.50999999046325684,0.40999999642372131
470,3.2000000476837158,0,0.20000000298023224,3.2000000476837158,0.60000002384185791,0.20000000298023224,3.7999999523162842,0.60000002384185791,0.20000000298023224,0,0,-1,0.60000002384185791,0.57999998331069946,0.49000000953674316
471,3.2000000476837158,0,0.20000000298023224,3.7999999523162842,0.60000002384185791,0.20000000298023224,3.7999999523162842,0,0.20000000298023224,0,0,-1,0.60000002384185791,0.57999998331069946,0.49000000953674316
472,3.2000000476837158,0,0.80000001192092896,3.7999999523162842,0,0.80000001192092896,3.7999999523162842,0.60000002384185791,0.80000001192092896,0,0,1,0.60000002384185791,0.57999998331069946,0.49000000953674316
473,3.2000000476837158,0,0.80000001192092896,3.7999999523162842,0.60000002384185791,0.80000001192092896,3.2000000476837158,0.60000002384185791,0.80000001192092896,0,0,1,0.60000002384185791,0.57999998331069946,0.49000000953674316
474,3.2000000476837158,0,0.20000000298023224,3.2000000476837158,0,0.80000001192092896,3.2000000476837158,0.60000002384185791,0.80000001192092896,-1,0,0,0.60000002384185791,0.57999998331069946,0.49000000953674316
475,3.2000000476837158,0,0.20000000298023224,3.2000000476837158,0.60000002384185791,0.80000001192092896,3.2000000476837158,0.60000002384185791,0.20000000298023224,-1,0,0,0.60000002384185791,0.57999998331069946,0.49000000953674316
476,3.7999999523162842,0,0.20000000298023224,3.7999999523162842,0.60000002384185791,0.20000000298023224,3.7999999523162842,0.60000002384185791,0.80000001192092896,1,0,0,0.60000002384185791,0.57999998331069946,0.49000000953674316
477,3.7999999523162842,0,0.20000000298023224,3.7999999523162842,0.60000002384185791,0.80000001192092896,3.7999999523162842,0,0.80000001192092896,1,0,0,0.60000002384185791,0.57999998331069946,0.49000000953674316
478,3.2000000476837158,0,0.20000000298023224,3.7999999523162842,0,0.20000000298023224,3.7999999523162842,0,0.80000001192092896,0,-1,0,0.60000002384185791,0.57999998331069946,0.49000000953674316
479,3.2000000476837158,0,0.20000000298023224,3.7999999523162842,0,0.80000001192092896,3.2000000476837158,0,0.80000001192092896,0,-1,0,0.60000002384185791,0.57999998331069946,0.49000000953674316
480,3.2000000476837158,0.60000002384185791,0.20000000298023224,3.2000000476837158,0.60000002384185791,0.80000001192092896,3.7999999523162842,0.60000002384185791,0.80000001192092896,0,1,0,0.60000002384185791,0.57999998331069946,0.49000000953674316
481,3.2000000476837158,0.60000002384185791,0.20000000298023224,3.7999999523162842,0.60000002384185791,0.80000001192092896,3.7999999523162842,0.60000002384185791,0.20000000298023224,0,1,0,0.60000002384185791,0.57999998331069946,0.49000000953674316
482,-3.7999999523162842,0,1.2000000476837158,-3.7999999523162842,0.60000002384185791,1.2000000476837158,-3.2000000476837158,0.60000002384185791,1.2000000476837158,0,0,-1,0.20000000298023224,0.64999997615814209,0.56999999284744263
483,-3.7999999523162842,0,1.2000000476837158,-3.2000000476837158,0.60000002384185791,1.2000000476837158,-3.2000000476837158,0,1.2000000476837158,0,0,-1,0.20000000298023224,0.64999997615814209,0.56999999284744263
484,-3.7999999523162842,0,1.7999999523162842,-3.2000000476837158,0,1.7999999523162842,-3.2000000476837158,0.60000002384185791,1.7999999523162842,0,0,1,0.20000000298023224,0.64999997615814209,0.56999999284744263
485,-3.7999999523162842,0,1.7999999523162842,-3.2000000476837158,0.60000002384185791,1.7999999523162842,-3.7999999523162842,0.60000002384185791,1.7999999523162842,0,0,1,0.20000000298023224,0.64999997615814209,0.56999999284744263
486,-3.7999999523162842,0,1.2000000476837158,-3.7999999523162842,0,1.7999999523162842,-3.7999999523162842,0.60000002384185791,1.7999999523162842,-1,0,0,0.20000000298023224,0.64999997615814209,0.56999999284744263
487,-3.7999999523162842,0,1.2000000476837158,-3.7999999523162842,0.60000002384185791,1.7999999523162842,-3.7999999523162842,0.60000002384185791,1.2000000476837158,-1,0,0,0.20000000298023224,0.64999997615814209,0.56999999284744263
488,-3.2000000476837158,0,1.2000000476837158,-3.2000000476837158,0.60000002384185791,1.2000000476837158,-3.2000000476837158,0.60000002384185791,1.7999999523162842,1,0,0,0.20000000298023224,0.64999997615814209,0.56999999284744263
489,-3.2000000476837158,0,1.2000000476837158,-3.2000000476837158,0.60000002384185791,1.7999999523162842,-3.2000000476837158,0,1.7999999523162842,1,0,0,0.20000000298023224,0.64999997615814209,0.56999999284744263
490,-3.7999999523162842,0,1.2000000476837158,-3.2000000476837158,0,1.2000000476837158,-3.2000000476837158,0,1.7999999523162842,0,-1,0,0.20000000298023224,0.64999997615814209,0.56999999284744263
491,-3.7999999523162842,0,1.2000000476837158,-3.2000000476837158,0,1.7999999523162842,-3.7999999523162842,0,1.7999999523162842,0,-1,0,0.20000000298023224,0.64999997615814209,0.56999999284744263
492,-3.7999999523162842,0.60000002384185791,1.2000000476837158,-3.7999999523162842,0.60000002384185791,1.7999999523162842,-3.2000000476837158,0.60000002384185791,1.7999999523162842,0,1,0,0.20000000298023224,0.64999997615814209,0.56999999284744263
493,-3.7999999523162842,0.60000002384185791,1.2000000476837158,-3.2000000476837158,0.60000002384185791,1.7999999523162842,-3.2000000476837158,0.60000002384185791,1.2000000476837158,0,1,0,0.20000000298023224,0.64999997615814209,0.56999999284744263
494,-2.7999999523162842,0,1.2000000476837158,-2.7999999523162842,0.60000002384185791,1.2000000476837158,-2.2000000476837158,0.60000002384185791,1.2000000476837158,0,0,-1,0.30000001192092896,0.72000002861022949,0.64999997615814209
495,-2.7999999523162842,0,1.2000000476837158,-2.2000000476837158,0.60000002384185791,1.2000000476837158,-2.2000000476837158,0,1.2000000476837158,0,0,-1,0.30000001192092896,0.72000002861022949,0.64999997615814209
496,-2.7999999523162842,0,1.7999999523162842,-2.2000000476837158,0,1.7999999523162842,-2.2000000476837158,0.60000002384185791,1.7999999523162842,0,0,1,0.30000001192092896,0.72000002861022949,0.64999997615814209
497,-2.7999999523162842,0,1.7999999523162842,-2.2000000476837158,0.60000002384185791,1.7999999523162842,-2.7999999523162842,0.60000002384185791,1.7999999523162842,0,0,1,0.30000001192092896,0.72000002861022949,0.64999997615814209
498,-2.7999999523162842,0,1.2000000476837158,-2.7999999523162842,0,1.7999999523162842,-2.7999999523162842,0.60000002384185791,1.7999999523162842,-1,0,0,0.30000001192092896,0.72000002861022949,0.64999997615814209
499,-2.7999999523162842,0,1.2000000476837158,-2.7999999523162842,0.60000002384185791,1.7999999523162842,-2.7999999523162842,0.60000002384185791,1.2000000476837158,-1,0,0,0.30000001192092896,0.72000002861022949,0.64999997615814209
500,-2.2000000476837158,0,1.2000000476837158,-2.2000000476837158,0.60000002384185791,1.2000000476837158,-2.2000000476837158,0.60000002384185791,1.7999999523162842,1,0,0,0.30000001192092896,0.72000002861022949,0.64999997615814209
501,-2.2000000476837158,0,1.2000000476837158,-2.2000000476837158,0.60000002384185791,1.7999999523162842,-2.2000000476837158,0,1.7999999523162842,1,0,0,0.30000001192092896,0.72000002861022949,0.64999997615814209
502,-2.7999999523162842,0,1.2000000476837158,-2.2000000476837158,0,1.2000000476837158,-2.2000000476837158,0,1.7999999523162842,0,-1,0,0.30000001192092896,0.72000002861022949,0.64999997615814209
503,-2.7999999523162842,0,1.2000000476837158,-2.2000000476837158,0,1.7999999523162842,-2.7999999523162842,0,1.7999999523162842,0,-1,0,0.30000001192092896,0.72000002861022949,0.64999997615814209
504,-2.7999999523162842,0.60000002384185791,1.2000000476837158,-2.7999999523162842,0.60000002384185791,1.7999999523162842,-2.2000000476837158,0.60000002384185791,1.7999999523162842,0,1,0,0.30000001192092896,0.72000002861022949,0.64999997615814209
505,-2.7999999523162842,0.60000002384185791,1.2000000476837158,-2.2000000476837158,0.60000002384185791,1.7999999523162842,-2.2000000476837158,0.60000002384185791,1.2000000476837158,0,1,0,0.30000001192092896,0.72000002861022949,0.64999997615814209
506,-1.7999999523162842,0,1.2000000476837158,-1.7999999523162842,0.60000002384185791,1.2000000476837158,-1.2000000476837158,0.60000002384185791,1.2000000476837158,0,0,-1,0.40000000596046448,0.30000001192092896,0.25
507,-1.7999999523162842,0,1.2000000476837158,-1.2000000476837158,0.60000002384185791,1.2000000476837158,-1.2000000476837158,0,1.2000000476837158,0,0,-1,0.40000000596046448,0.30000001192092896,0.25
508,-1.7999999523162842,0,1.7999999523162842,-1.2000000476837158,0,1.7999999523162842,-1.2000000476837158,0.60000002384185791,1.7999999523162842,0,0,1,0.40000000596046448,0.30000001192092896,0.25
509,-1.7999999523162842,0,1.7999999523162842,-1.2000000476837158,0.60000002384185791,1.7999999523162842,-1.7999999523162842,0.60000002384185791,1.7999999523162842,0,0,1,0.40000000596046448,0.30000001192092896,0.25
510,-1.7999999523162842,0,1.2000000476837158,-1.7999999523162842,0,1.7999999523162842,-1.7999999523162842,0.60000002384185791,1.7999999523162842,-1,0,0,0.40000000596046448,0.30000001192092896,0.25
511,-1.7999999523162842,0,1.2000000476837158,-1.7999999523162842,0.60000002384185791,1.7999999523162842,-1.7999999523162842,0.60000002384185791,1.2000000476837158,-1,0,0,0.40000000596046448,0.30000001192092896,0.25
512,-1.2000000476837158,0,1.2000000476837158,-1.2000000476837158,0.60000002384185791,1.2000000476837158,-1.2000000476837158,0.60000002384185791,1.7999999523162842,1,0,0,0.40000000596046448,0.30000001192092896,0.25
513,-1.2000000476837158,0,1.2000000476837158,-1.2000000476837158,0.60000002384185791,1.7999999523162842,-1.2000000476837158,0,1.7999999523162842,1,0,0,0.40000000596046448,0.30000001192092896,0.25
514,-1.7999999523162842,0,1.2000000476837158,-1.2000000476837158,0,1.2000000476837158,-1.2000000476837158,0,1.7999999523162842,0,-1,0,0.40000000596046448,0.30000001192092896,0.25
515,-1.7999999523162842,0,1.2000000476837158,-1.2000000476837158,0,1.7999999523162842,-1.7999999523162842,0,1.7999999523162842,0,-1,0,0.40000000596046448,0.30000001192092896,0.25
516,-1.7999999523162842,0.60000002384185791,1.2000000476837158,-1.7999999523162842,0.60000002384185791,1.7999999523162842,-1.2000000476837158,0.60000002384185791,1.7999999523162842,0,1,0,0.40000000596046448,0.30000001192092896,0.25
517,-1.7999999523162842,0.60000002384185791,1.2000000476837158,-1.2000000476837158,0.60000002384185791,1.7999999523162842,-1.2000000476837158,0.60000002384185791,1.2000000476837158,0,1,0,0.40000000596046448,0.30000001192092896,0.25
518,-0.80000001192092896,0,1.2000000476837158,-0.80000001192092896,0.60000002384185791,1.2000000476837158,-0.20000000298023224,0.60000002384185791,1.2000000476837158,0,0,-1,0.5,0.37000000476837158,0.33000001311302185
519,-0.80000001192092896,0,1.2000000476837158,-0.20000000298023224,0.60000002384185791,1.2000000476837158,-0.20000000298023224,0,1.2000000476837158,0,0,-1,0.5,0.37000000476837158,0.33000001311302185
520,-0.80000001192092896,0,1.7999999523162842,-0.20000000298023224,0,1.7999999523162842,-0.20000000298023224,0.60000002384185791,1.7999999523162842,0,0,1,0.5,0.37000000476837158,0.33000001311302185
521,-0.80000001192092896,0,1.7999999523162842,-0.20000000298023224,0.60000002384185791,1.7999999523162842,-0.80000001192092896,0.60000002384185791,1.7999999523162842,0,0,1,0.5,0.37000000476837158,0.33000001311302185
522,-0.80000001192092896,0,1.2000000476837158,-0.80000001192092896,0,1.7999999523162842,-0.80000001192092896,0.60000002384185791,1.7999999523162842,-1,0,0,0.5,0.37000000476837158,0.33000001311302185
523,-0.80000001192092896,0,1.2000000476837158,-0.80000001192092896,0.60000002384185791,1.7999999523162842,-0.80000001192092896,0.60000002384185791,1.2000000476837158,-1,0,0,0.5,0.37000000476837158,0.33000001311302185
524,-0.20000000298023224,0,1.2000000476837158,-0.20000000298023224,0.60000002384185791,1.2000000476837158,-0.20000000298023224,0.60000002384185791,1.7999999523162842,1,0,0,0.5,0.37000000476837158,0.33000001311302185
525,-0.20000000298023224,0,1.2000000476837158,-0.20000000298023224,0.60000002384185791,1.7999999523162842,-0.20000000298023224,0,1.7999999523162842,1,0,0,0.5,0.37000000476837158,0.33000001311302185
526,-0.80000001192092896,0,1.2000000476837158,-0.20000000298023224,0,1.2000000476837158,-0.20000000298023224,0,1.7999999523162842,0,-1,0,0.5,0.37000000476837158,0.33000001311302185
527,-0.80000001192092896,0,1.2000000476837158,-0.20000000298023224,0,1.7999999523162842,-0.80000001192092896,0,1.7999999523162842,0,-1,0,0.5,0.37000000476837158,0.33000001311302185
528,-0.80000001192092896,0.60000002384185791,1.2000000476837158,-0.80000001192092896,0.60000002384185791,1.7999999523162842,-0.20000000298023224,0.60000002384185791,1.7999999523162842,0,1,0,0.5,0.37000000476837158,0.33000001311302185
529,-0.80000001192092896,0.60000002384185791,1.2000000476837158,-0.20000000298023224,0.60000002384185791,1.7999999523162842,-0.20000000298023224,0.60000002384185791,1.2000000476837158,0,1,0,0.5,0.37000000476837158,0.33000001311302185
530,0.20000000298023224,0,1.2000000476837158,0.20000000298023224,0.60000002384185791,1.2000000476837158,0.80000001192092896,0.60000002384185791,1.2000000476837158,0,0,-1,0.60000002384185791,0.43999999761581421,0.40999999642372131
531,0.20000000298023224,0,1.2000000476837158,0.80000001192092896,0.60000002384185791,1.2000000476837158,0.80000001192092896,0,1.2000000476837158,0,0,-1,0.60000002384185791,0.43999999761581421,0.40999999642372131
532,0.20000000298023224,0,1.7999999523162842,0.80000001192092896,0,1.7999999523162842,0.80000001192092896,0.60000002384185791,1.7999999523162842,0,0,1,0.60000002384185791,0.43999999761581421,0.40999999642372131
533,0.20000000298023224,0,1.7999999523162842,0.80000001192092896,0.60000002384185791,1.7999999523162842,0.20000000298023224,0.60000002384185791,1.7999999523162842,0,0,1,0.60000002384185791,0.43999999761581421,0.40999999642372131
534,0.20000000298023224,0,1.2000000476837158,0.20000000298023224,0,1.7999999523162842,0.20000000298023224,0.60000002384185791,1.7999999523162842,-1,0,0,0.60000002384185791,0.43999999761581421,0.40999999642372131
535,0.20000000298023224,0,1.2000000476837158,0.20000000298023224,0.60000002384185791,1.7999999523162842,0.20000000298023224,0.60000002384185791,1.2000000476837158,-1,0,0,0.60000002384185791,0.43999999761581421,0.40999999642372131
536,0.80000001192092896,0,1.2000000476837158,0.80000001192092896,0.60000002384185791,1.2000000476837158,0.80000001192092896,0.60000002384185791,1.7999999523162842,1,0,0,0.60000002384185791,0.43999999761581421,0.40999999642372131
537,0.80000001192092896,0,1.2000000476837158,0.80000001192092896,0.60000002384185791,1.7999999523162842,0.80000001192092896,0,1.7999999523162842,1,0,0,0.60000002384185791,0.43999999761581421,0.40999999642372131
538,0.20000000298023224,0,1.2000000476837158,0.80000001192092896,0,1.2000000476837158,0.80000001192092896,0,1.7999999523162842,0,-1,0,0.60000002384185791,0.43999999761581421,0.40999999642372131
539,0.20000000298023224,0,1.2000000476837158,0.80000001192092896,0,1.7999999523162842,0.20000000298023224,0,1.7999999523162842,0,-1,0,0.60000002384185791,0.43999999761581421,0.40999999642372131
540,0.20000000298023224,0.60000002384185791,1.2000000476837158,0.20000000298023224,0.60000002384185791,1.7999999523162842,0.80000001192092896,0.60000002384185791,1.7999999523162842,0,1,0,0.60000002384185791,0.43999999761581421,0.40999999642372131
541,0.20000000298023224,0.60000002384185791,1.2000000476837158,0.80000001192092896,0.60000002384185791,1.7999999523162842,0.80000001192092896,0.60000002384185791,1.2000000476837158,0,1,0,0.60000002384185791,0.43999999761581421,0.40999999642372131
542,1.2000000476837158,0,1.2000000476837158,1.2000000476837158,0.60000002384185791,1.2000000476837158,1.7999999523162842,0.60000002384185791,1.2000000476837158,0,0,-1,0.20000000298023224,0.50999999046325684,0.49000000953674316
543,1.2000000476837158,0,1.2000000476837158,1.7999999523162842,0.60000002384185791,1.2000000476837158,1.7999999523162842,0,1.2000000476837158,0,0,-1,0.20000000298023224,0.50999999046325684,0.49000000953674316
544,1.2000000476837158,0,1.7999999523162842,1.7999999523162842,0,1.7999999523162842,1.7999999523162842,0.60000002384185791,1.7999999523162842,0,0,1,0.20000000298023224,0.50999999046325684,0.49000000953674316
545,1.2000000476837158,0,1.7999999523162842,1.7999999523162842,0.60000002384185791,1.7999999523162842,1.2000000476837158,0.60000002384185791,1.7999999523162842,0,0,1,0.20000000298023224,0.50999999046325684,0.49000000953674316
546,1.2000000476837158,0,1.2000000476837158,1.2000000476837158,0,1.7999999523162842,1.2000000476837158,0.60000002384185791,1.7999999523162842,-1,0,0,0.20000000298023224,0.50999999046325684,0.49000000953674316
547,1.2000000476837158,0,1.2000000476837158,1.2000000476837158,0.60000002384185791,1.7999999523162842,1.2000000476837158,0.60000002384185791,1.2000000476837158,-1,0,0,0.20000000298023224,0.50999999046325684,0.49000000953674316
548,1.7999999523162842,0,1.2000000476837158,1.7999999523162842,0.60000002384185791,1.2000000476837158,1.7999999523162842,0.60000002384185791,1.7999999523162842,1,0,0,0.20000000298023224,0.50999999046325684,0.49000000953674316
549,1.7999999523162842,0,1.2000000476837158,1.7999999523162842,0.60000002384185791,1.7999999523162842,1.7999999523162842,0,1.7999999523162842,1,0,0,0.20000000298023224,0.50999999046325684,0.49000000953674316
550,1.2000000476837158,0,1.2000000476837158,1.7999999523162842,0,1.2000000476837158,1.7999999523162842,0,1.7999999523162842,0,-1,0,0.20000000298023224,0.50999999046325684,0.49000000953674316
551,1.2000000476837158,0,1.2000000476837158,1.7999999523162842,0,1.7999999523162842,1.2000000476837158,0,1.7999999523162842,0,-1,0,0.20000000298023224,0.50999999046325684,0.49000000953674316
552,1.2000000476837158,0.60000002384185791,1.2000000476837158,1.2000000476837158,0.60000002384185791,1.7999999523162842,1.7999999523162842,0.60000002384185791,1.7999999523162842,0,1,0,0.20000000298023224,0.50999999046325684,0.49000000953674316
