id,ax,ay,az,bx,by,bz,cx,cy,cz,nx,ny,nz,r,g,b
0,-5,0,-5,5,0,5,5,0,-5,0,1,0,0.55000001192092896,0.55000001192092896,0.55000001192092896
1,-5,0,-5,-5,0,5,5,0,5,0,1,0,0.55000001192092896,0.55000001192092896,0.55000001192092896
2,-0.60000002384185791,0,-0.60000002384185791,-0.60000002384185791,1.2000000476837158,-0.60000002384185791,0.60000002384185791,1.2000000476837158,-0.60000002384185791,0,0,-1,0.20000000298023224,0.30000001192092896,0.25
3,-0.60000002384185791,0,-0.60000002384185791,0.60000002384185791,1.2000000476837158,-0.60000002384185791,0.60000002384185791,0,-0.60000002384185791,0,0,-1,0.20000000298023224,0.30000001192092896,0.25
4,-0.60000002384185791,0,0.60000002384185791,0.60000002384185791,0,0.60000002384185791,0.60000002384185791,1.2000000476837158,0.60000002384185791,0,0,1,0.20000000298023224,0.30000001192092896,0.25
5,-0.60000002384185791,0,0.60000002384185791,0.60000002384185791,1.2000000476837158,0.60000002384185791,-0.60000002384185791,1.2000000476837158,0.60000002384185791,0,0,1,0.20000000298023224,0.30000001192092896,0.25
6,-0.60000002384185791,0,-0.60000002384185791,-0.60000002384185791,0,0.60000002384185791,-0.60000002384185791,1.2000000476837158,0.60000002384185791,-1,0,0,0.20000000298023224,0.30000001192092896,0.25
7,-0.60000002384185791,0,-0.60000002384185791,-0.60000002384185791,1.2000000476837158,0.60000002384185791,-0.60000002384185791,1.2000000476837158,-0.60000002384185791,-1,0,0,0.20000000298023224,0.30000001192092896,0.25
8,0.60000002384185791,0,-0.60000002384185791,0.60000002384185791,1.2000000476837158,-0.60000002384185791,0.60000002384185791,1.2000000476837158,0.60000002384185791,1,0,0,0.20000000298023224,0.30000001192092896,0.25
9,0.60000002384185791,0,-0.60000002384185791,0.60000002384185791,1.2000000476837158,0.60000002384185791,0.60000002384185791,0,0.60000002384185791,1,0,0,0.20000000298023224,0.30000001192092896,0.25
10,-0.60000002384185791,0,-0.60000002384185791,0.60000002384185791,0,-0.60000002384185791,0.60000002384185791,0,0.60000002384185791,0,-1,0,0.20000000298023224,0.30000001192092896,0.25
11,-0.60000002384185791,0,-0.60000002384185791,0.60000002384185791,0,0.60000002384185791,-0.60000002384185791,0,0.60000002384185791,0,-1,0,0.20000000298023224,0.30000001192092896,0.25
12,-0.60000002384185791,1.2000000476837158,-0.60000002384185791,-0.60000002384185791,1.2000000476837158,0.60000002384185791,0.60000002384185791,1.2000000476837158,0.60000002384185791,0,1,0,0.20000000298023224,0.30000001192092896,0.25
13,-0.60000002384185791,1.2000000476837158,-0.60000002384185791,0.60000002384185791,1.2000000476837158,0.60000002384185791,0.60000002384185791,1.2000000476837158,-0.60000002384185791,0,1,0,0.20000000298023224,0.30000001192092896,0.25
14,-0.60000002384185791,0,-0.60000002384185791,-0.60000002384185791,1.2000000476837158,-0.60000002384185791,0.60000002384185791,1.2000000476837158,-0.60000002384185791,0,0,-1,0.30000001192092896,0.37000000476837158,0.33000001311302185
15,-0.60000002384185791,0,-0.60000002384185791,0.60000002384185791,1.2000000476837158,-0.60000002384185791,0.60000002384185791,0,-0.60000002384185791,0,0,-1,0.30000001192092896,0.37000000476837158,0.33000001311302185
16,-0.60000002384185791,0,0.60000002384185791,0.60000002384185791,0,0.60000002384185791,0.60000002384185791,1.2000000476837158,0.60000002384185791,0,0,1,0.30000001192092896,0.37000000476837158,0.33000001311302185
17,-0.60000002384185791,0,0.60000002384185791,0.60000002384185791,1.2000000476837158,0.60000002384185791,-0.60000002384185791,1.2000000476837158,0.60000002384185791,0,0,1,0.30000001192092896,0.37000000476837158,0.33000001311302185
18,-0.60000002384185791,0,-0.60000002384185791,-0.60000002384185791,0,0.60000002384185791,-0.60000002384185791,1.2000000476837158,0.60000002384185791,-1,0,0,0.30000001192092896,0.37000000476837158,0.33000001311302185
19,-0.60000002384185791,0,-0.60000002384185791,-0.60000002384185791,1.2000000476837158,0.60000002384185791,-0.60000002384185791,1.2000000476837158,-0.60000002384185791,-1,0,0,0.30000001192092896,0.37000000476837158,0.33000001311302185
20,0.60000002384185791,0,-0.60000002384185791,0.60000002384185791,1.2000000476837158,-0.60000002384185791,0.60000002384185791,1.2000000476837158,0.60000002384185791,1,0,0,0.30000001192092896,0.37000000476837158,0.33000001311302185
21,0.60000002384185791,0,-0.60000002384185791,0.60000002384185791,1.2000000476837158,0.60000002384185791,0.60000002384185791,0,0.60000002384185791,1,0,0,0.30000001192092896,0.37000000476837158,0.33000001311302185
22,-0.60000002384185791,0,-0.60000002384185791,0.60000002384185791,0,-0.60000002384185791,0.60000002384185791,0,0.60000002384185791,0,-1,0,0.30000001192092896,0.37000000476837158,0.33000001311302185
23,-0.60000002384185791,0,-0.60000002384185791,0.60000002384185791,0,0.60000002384185791,-0.60000002384185791,0,0.60000002384185791,0,-1,0,0.30000001192092896,0.37000000476837158,0.33000001311302185
24,-0.60000002384185791,1.2000000476837158,-0.60000002384185791,-0.60000002384185791,1.2000000476837158,0.60000002384185791,0.60000002384185791,1.2000000476837158,0.60000002384185791,0,1,0,0.30000001192092896,0.37000000476837158,0.33000001311302185
25,-0.60000002384185791,1.2000000476837158,-0.60000002384185791,0.60000002384185791,1.2000000476837158,0.60000002384185791,0.60000002384185791,1.2000000476837158,-0.60000002384185791,0,1,0,0.30000001192092896,0.37000000476837158,0.33000001311302185
26,-0.60000002384185791,0,-0.60000002384185791,-0.60000002384185791,1.2000000476837158,-0.60000002384185791,0.60000002384185791,1.2000000476837158,-0.60000002384185791,0,0,-1,0.40000000596046448,0.43999999761581421,0.40999999642372131
27,-0.60000002384185791,0,-0.60000002384185791,0.60000002384185791,1.2000000476837158,-0.60000002384185791,0.60000002384185791,0,-0.60000002384185791,0,0,-1,0.40000000596046448,0.43999999761581421,0.40999999642372131
28,-0.60000002384185791,0,0.60000002384185791,0.60000002384185791,0,0.60000002384185791,0.60000002384185791,1.2000000476837158,0.60000002384185791,0,0,1,0.40000000596046448,0.43999999761581421,0.40999999642372131
29,-0.60000002384185791,0,0.60000002384185791,0.60000002384185791,1.2000000476837158,0.60000002384185791,-0.60000002384185791,1.2000000476837158,0.60000002384185791,0,0,1,0.40000000596046448,0.43999999761581421,0.40999999642372131
30,-0.60000002384185791,0,-0.60000002384185791,-0.60000002384185791,0,0.60000002384185791,-0.60000002384185791,1.2000000476837158,0.60000002384185791,-1,0,0,0.40000000596046448,0.43999999761581421,0.40999999642372131
31,-0.60000002384185791,0,-0.60000002384185791,-0.60000002384185791,1.2000000476837158,0.60000002384185791,-0.60000002384185791,1.2000000476837158,-0.60000002384185791,-1,0,0,0.40000000596046448,0.43999999761581421,0.40999999642372131
32,0.60000002384185791,0,-0.60000002384185791,0.60000002384185791,1.2000000476837158,-0.60000002384185791,0.60000002384185791,1.2000000476837158,0.60000002384185791,1,0,0,0.40000000596046448,0.43999999761581421,0.40999999642372131
33,0.60000002384185791,0,-0.60000002384185791,0.60000002384185791,1.2000000476837158,0.60000002384185791,0.60000002384185791,0,0.60000002384185791,1,0,0,0.40000000596046448,0.43999999761581421,0.40999999642372131
34,-0.60000002384185791,0,-0.60000002384185791,0.60000002384185791,0,-0.60000002384185791,0.60000002384185791,0,0.60000002384185791,0,-1,0,0.40000000596046448,0.43999999761581421,0.40999999642372131
35,-0.60000002384185791,0,-0.60000002384185791,0.60000002384185791,0,0.60000002384185791,-0.60000002384185791,0,0.60000002384185791,0,-1,0,0.40000000596046448,0.43999999761581421,0.40999999642372131
36,-0.60000002384185791,1.2000000476837158,-0.60000002384185791,-0.60000002384185791,1.2000000476837158,0.60000002384185791,0.60000002384185791,1.2000000476837158,0.60000002384185791,0,1,0,0.40000000596046448,0.43999999761581421,0.40999999642372131
37,-0.60000002384185791,1.2000000476837158,-0.60000002384185791,0.60000002384185791,1.2000000476837158,0.60000002384185791,0.60000002384185791,1.2000000476837158,-0.60000002384185791,0,1,0,0.40000000596046448,0.43999999761581421,0.40999999642372131
38,-0.60000002384185791,0,-0.60000002384185791,-0.60000002384185791,1.2000000476837158,-0.60000002384185791,0.60000002384185791,1.2000000476837158,-0.60000002384185791,0,0,-1,0.5,0.50999999046325684,0.49000000953674316
39,-0.60000002384185791,0,-0.60000002384185791,0.60000002384185791,1.2000000476837158,-0.60000002384185791,0.60000002384185791,0,-0.60000002384185791,0,0,-1,0.5,0.50999999046325684,0.49000000953674316
40,-0.60000002384185791,0,0.60000002384185791,0.60000002384185791,0,0.60000002384185791,0.60000002384185791,1.2000000476837158,0.60000002384185791,0,0,1,0.5,0.50999999046325684,0.49000000953674316
41,-0.60000002384185791,0,0.60000002384185791,0.60000002384185791,1.2000000476837158,0.60000002384185791,-0.60000002384185791,1.2000000476837158,0.60000002384185791,0,0,1,0.5,0.50999999046325684,0.49000000953674316
42,-0.60000002384185791,0,-0.60000002384185791,-0.60000002384185791,0,0.60000002384185791,-0.60000002384185791,1.2000000476837158,0.60000002384185791,-1,0,0,0.5,0.50999999046325684,0.49000000953674316
43,-0.60000002384185791,0,-0.60000002384185791,-0.60000002384185791,1.2000000476837158,0.60000002384185791,-0.60000002384185791,1.2000000476837158,-0.60000002384185791,-1,0,0,0.5,0.50999999046325684,0.49000000953674316
44,0.60000002384185791,0,-0.60000002384185791,0.60000002384185791,1.2000000476837158,-0.60000002384185791,0.60000002384185791,1.2000000476837158,0.60000002384185791,1,0,0,0.5,0.50999999046325684,0.49000000953674316
45,0.60000002384185791,0,-0.60000002384185791,0.60000002384185791,1.2000000476837158,0.60000002384185791,0.60000002384185791,0,0.60000002384185791,1,0,0,0.5,0.50999999046325684,0.49000000953674316
46,-0.60000002384185791,0,-0.60000002384185791,0.60000002384185791,0,-0.60000002384185791,0.60000002384185791,0,0.60000002384185791,0,-1,0,0.5,0.50999999046325684,0.49000000953674316
47,-0.60000002384185791,0,-0.60000002384185791,0.60000002384185791,0,0.60000002384185791,-0.60000002384185791,0,0.60000002384185791,0,-1,0,0.5,0.50999999046325684,0.49000000953674316
48,-0.60000002384185791,1.2000000476837158,-0.60000002384185791,-0.60000002384185791,1.2000000476837158,0.60000002384185791,0.60000002384185791,1.2000000476837158,0.60000002384185791,0,1,0,0.5,0.50999999046325684,0.49000000953674316
49,-0.60000002384185791,1.2000000476837158,-0.60000002384185791,0.60000002384185791,1.2000000476837158,0.60000002384185791,0.60000002384185791,1.2000000476837158,-0.60000002384185791,0,1,0,0.5,0.50999999046325684,0.49000000953674316
50,-0.60000002384185791,0,-0.60000002384185791,-0.60000002384185791,1.2000000476837158,-0.60000002384185791,0.60000002384185791,1.2000000476837158,-0.60000002384185791,0,0,-1,0.60000002384185791,0.57999998331069946,0.56999999284744263
51,-0.60000002384185791,0,-0.60000002384185791,0.60000002384185791,1.2000000476837158,-0.60000002384185791,0.60000002384185791,0,-0.60000002384185791,0,0,-1,0.60000002384185791,0.57999998331069946,0.56999999284744263
52,-0.60000002384185791,0,0.60000002384185791,0.60000002384185791,0,0.60000002384185791,0.60000002384185791,1.2000000476837158,0.60000002384185791,0,0,1,0.60000002384185791,0.57999998331069946,0.56999999284744263
53,-0.60000002384185791,0,0.60000002384185791,0.60000002384185791,1.2000000476837158,0.60000002384185791,-0.60000002384185791,1.2000000476837158,0.60000002384185791,0,0,1,0.60000002384185791,0.57999998331069946,0.56999999284744263
54,-0.60000002384185791,0,-0.60000002384185791,-0.60000002384185791,0,0.60000002384185791,-0.60000002384185791,1.2000000476837158,0.60000002384185791,-1,0,0,0.60000002384185791,0.57999998331069946,0.56999999284744263
55,-0.60000002384185791,0,-0.60000002384185791,-0.60000002384185791,1.2000000476837158,0.60000002384185791,-0.60000002384185791,1.2000000476837158,-0.60000002384185791,-1,0,0,0.60000002384185791,0.57999998331069946,0.56999999284744263
56,0.60000002384185791,0,-0.60000002384185791,0.60000002384185791,1.2000000476837158,-0.60000002384185791,0.60000002384185791,1.2000000476837158,0.60000002384185791,1,0,0,0.60000002384185791,0.57999998331069946,0.56999999284744263
57,0.60000002384185791,0,-0.60000002384185791,0.60000002384185791,1.2000000476837158,0.60000002384185791,0.60000002384185791,0,0.60000002384185791,1,0,0,0.60000002384185791,0.57999998331069946,0.56999999284744263
58,-0.60000002384185791,0,-0.60000002384185791,0.60000002384185791,0,-0.60000002384185791,0.60000002384185791,0,0.60000002384185791,0,-1,0,0.60000002384185791,0.57999998331069946,0.56999999284744263
59,-0.60000002384185791,0,-0.60000002384185791,0.60000002384185791,0,0.60000002384185791,-0.60000002384185791,0,0.60000002384185791,0,-1,0,0.60000002384185791,0.57999998331069946,0.56999999284744263
60,-0.60000002384185791,1.2000000476837158,-0.60000002384185791,-0.60000002384185791,1.2000000476837158,0.60000002384185791,0.60000002384185791,1.2000000476837158,0.60000002384185791,0,1,0,0.60000002384185791,0.57999998331069946,0.56999999284744263
61,-0.60000002384185791,1.2000000476837158,-0.60000002384185791,0.60000002384185791,1.2000000476837158,0.60000002384185791,0.60000002384185791,1.2000000476837158,-0.60000002384185791,0,1,0,0.60000002384185791,0.57999998331069946,0.56999999284744263
62,-0.60000002384185791,0,-0.60000002384185791,-0.60000002384185791,1.2000000476837158,-0.60000002384185791,0.60000002384185791,1.2000000476837158,-0.60000002384185791,0,0,-1,0.20000000298023224,0.64999997615814209,0.64999997615814209
63,-0.60000002384185791,0,-0.60000002384185791,0.60000002384185791,1.2000000476837158,-0.60000002384185791,0.60000002384185791,0,-0.60000002384185791,0,0,-1,0.20000000298023224,0.64999997615814209,0.64999997615814209
64,-0.60000002384185791,0,0.60000002384185791,0.60000002384185791,0,0.60000002384185791,0.60000002384185791,1.2000000476837158,0.60000002384185791,0,0,1,0.20000000298023224,0.64999997615814209,0.64999997615814209
65,-0.60000002384185791,0,0.60000002384185791,0.60000002384185791,1.2000000476837158,0.60000002384185791,-0.60000002384185791,1.2000000476837158,0.60000002384185791,0,0,1,0.20000000298023224,0.64999997615814209,0.64999997615814209
66,-0.60000002384185791,0,-0.60000002384185791,-0.60000002384185791,0,0.60000002384185791,-0.60000002384185791,1.2000000476837158,0.60000002384185791,-1,0,0,0.20000000298023224,0.64999997615814209,0.64999997615814209
67,-0.60000002384185791,0,-0.60000002384185791,-0.60000002384185791,1.2000000476837158,0.60000002384185791,-0.60000002384185791,1.2000000476837158,-0.60000002384185791,-1,0,0,0.20000000298023224,0.64999997615814209,0.64999997615814209
68,0.60000002384185791,0,-0.60000002384185791,0.60000002384185791,1.2000000476837158,-0.60000002384185791,0.60000002384185791,1.2000000476837158,0.60000002384185791,1,0,0,0.20000000298023224,0.64999997615814209,0.64999997615814209
69,0.60000002384185791,0,-0.60000002384185791,0.60000002384185791,1.2000000476837158,0.60000002384185791,0.60000002384185791,0,0.60000002384185791,1,0,0,0.20000000298023224,0.64999997615814209,0.64999997615814209
70,-0.60000002384185791,0,-0.60000002384185791,0.60000002384185791,0,-0.60000002384185791,0.60000002384185791,0,0.60000002384185791,0,-1,0,0.20000000298023224,0.64999997615814209,0.64999997615814209
71,-0.60000002384185791,0,-0.60000002384185791,0.60000002384185791,0,0.60000002384185791,-0.60000002384185791,0,0.60000002384185791,0,-1,0,0.20000000298023224,0.64999997615814209,0.64999997615814209
72,-0.60000002384185791,1.2000000476837158,-0.60000002384185791,-0.60000002384185791,1.2000000476837158,0.60000002384185791,0.60000002384185791,1.2000000476837158,0.60000002384185791,0,1,0,0.20000000298023224,0.64999997615814209,0.64999997615814209
73,-0.60000002384185791,1.2000000476837158,-0.60000002384185791,0.60000002384185791,1.2000000476837158,0.60000002384185791,0.60000002384185791,1.2000000476837158,-0.60000002384185791,0,1,0,0.20000000298023224,0.64999997615814209,0.64999997615814209
74,-0.60000002384185791,0,-0.60000002384185791,-0.60000002384185791,1.2000000476837158,-0.60000002384185791,0.60000002384185791,1.2000000476837158,-0.60000002384185791,0,0,-1,0.30000001192092896,0.72000002861022949,0.25
75,-0.60000002384185791,0,-0.60000002384185791,0.60000002384185791,1.2000000476837158,-0.60000002384185791,0.60000002384185791,0,-0.60000002384185791,0,0,-1,0.30000001192092896,0.72000002861022949,0.25
76,-0.60000002384185791,0,0.60000002384185791,0.60000002384185791,0,0.60000002384185791,0.60000002384185791,1.2000000476837158,0.60000002384185791,0,0,1,0.30000001192092896,0.72000002861022949,0.25
77,-0.60000002384185791,0,0.60000002384185791,0.60000002384185791,1.2000000476837158,0.60000002384185791,-0.60000002384185791,1.2000000476837158,0.60000002384185791,0,0,1,0.30000001192092896,0.72000002861022949,0.25
78,-0.60000002384185791,0,-0.60000002384185791,-0.60000002384185791,0,0.60000002384185791,-0.60000002384185791,1.2000000476837158,0.60000002384185791,-1,0,0,0.30000001192092896,0.72000002861022949,0.25
79,-0.60000002384185791,0,-0.60000002384185791,-0.60000002384185791,1.2000000476837158,0.60000002384185791,-0.60000002384185791,1.2000000476837158,-0.60000002384185791,-1,0,0,0.30000001192092896,0.72000002861022949,0.25
80,0.60000002384185791,0,-0.60000002384185791,0.60000002384185791,1.2000000476837158,-0.60000002384185791,0.60000002384185791,1.2000000476837158,0.60000002384185791,1,0,0,0.30000001192092896,0.72000002861022949,0.25
81,0.60000002384185791,0,-0.60000002384185791,0.60000002384185791,1.2000000476837158,0.60000002384185791,0.60000002384185791,0,0.60000002384185791,1,0,0,0.30000001192092896,0.72000002861022949,0.25
82,-0.60000002384185791,0,-0.60000002384185791,0.60000002384185791,0,-0.60000002384185791,0.60000002384185791,0,0.60000002384185791,0,-1,0,0.30000001192092896,0.72000002861022949,0.25
83,-0.60000002384185791,0,-0.60000002384185791,0.60000002384185791,0,0.60000002384185791,-0.60000002384185791,0,0.60000002384185791,0,-1,0,0.30000001192092896,0.72000002861022949,0.25
84,-0.60000002384185791,1.2000000476837158,-0.60000002384185791,-0.60000002384185791,1.2000000476837158,0.60000002384185791,0.60000002384185791,1.2000000476837158,0.60000002384185791,0,1,0,0.30000001192092896,0.72000002861022949,0.25
85,-0.60000002384185791,1.2000000476837158,-0.60000002384185791,0.60000002384185791,1.2000000476837158,0.60000002384185791,0.60000002384185791,1.2000000476837158,-0.60000002384185791,0,1,0,0.30000001192092896,0.72000002861022949,0.25
86,-0.60000002384185791,0,-0.60000002384185791,-0.60000002384185791,1.2000000476837158,-0.60000002384185791,0.60000002384185791,1.2000000476837158,-0.60000002384185791,0,0,-1,0.40000000596046448,0.30000001192092896,0.33000001311302185
87,-0.60000002384185791,0,-0.60000002384185791,0.60000002384185791,1.2000000476837158,-0.60000002384185791,0.60000002384185791,0,-0.60000002384185791,0,0,-1,0.40000000596046448,0.30000001192092896,0.33000001311302185
88,-0.60000002384185791,0,0.60000002384185791,0.60000002384185791,0,0.60000002384185791,0.60000002384185791,1.2000000476837158,0.60000002384185791,0,0,1,0.40000000596046448,0.30000001192092896,0.33000001311302185
89,-0.60000002384185791,0,0.60000002384185791,0.60000002384185791,1.2000000476837158,0.60000002384185791,-0.60000002384185791,1.2000000476837158,0.60000002384185791,0,0,1,0.40000000596046448,0.30000001192092896,0.33000001311302185
90,-0.60000002384185791,0,-0.60000002384185791,-0.60000002384185791,0,0.60000002384185791,-0.60000002384185791,1.2000000476837158,0.60000002384185791,-1,0,0,0.40000000596046448,0.30000001192092896,0.33000001311302185
91,-0.60000002384185791,0,-0.60000002384185791,-0.60000002384185791,1.2000000476837158,0.60000002384185791,-0.60000002384185791,1.2000000476837158,-0.60000002384185791,-1,0,0,0.40000000596046448,0.30000001192092896,0.33000001311302185
92,0.60000002384185791,0,-0.60000002384185791,0.60000002384185791,1.2000000476837158,-0.60000002384185791,0.60000002384185791,1.2000000476837158,0.60000002384185791,1,0,0,0.40000000596046448,0.30000001192092896,0.33000001311302185
93,0.60000002384185791,0,-0.60000002384185791,0.60000002384185791,1.2000000476837158,0.60000002384185791,0.60000002384185791,0,0.60000002384185791,1,0,0,0.40000000596046448,0.30000001192092896,0.33000001311302185
94,-0.60000002384185791,0,-0.60000002384185791,0.60000002384185791,0,-0.60000002384185791,0.60000002384185791,0,0.60000002384185791,0,-1,0,0.40000000596046448,0.30000001192092896,0.33000001311302185
95,-0.60000002384185791,0,-0.60000002384185791,0.60000002384185791,0,0.60000002384185791,-0.60000002384185791,0,0.60000002384185791,0,-1,0,0.40000000596046448,0.30000001192092896,0.33000001311302185
96,-0.60000002384185791,1.2000000476837158,-0.60000002384185791,-0.60000002384185791,1.2000000476837158,0.60000002384185791,0.60000002384185791,1.2000000476837158,0.60000002384185791,0,1,0,0.40000000596046448,0.30000001192092896,0.33000001311302185
97,-0.60000002384185791,1.2000000476837158,-0.60000002384185791,0.60000002384185791,1.2000000476837158,0.60000002384185791,0.60000002384185791,1.2000000476837158,-0.60000002384185791,0,1,0,0.40000000596046448,0.30000001192092896,0.33000001311302185
98,-0.60000002384185791,0,-0.60000002384185791,-0.60000002384185791,1.2000000476837158,-0.60000002384185791,0.60000002384185791,1.2000000476837158,-0.60000002384185791,0,0,-1,0.5,0.37000000476837158,0.40999999642372131
99,-0.60000002384185791,0,-0.60000002384185791,0.60000002384185791,1.2000000476837158,-0.60000002384185791,0.60000002384185791,0,-0.60000002384185791,0,0,-1,0.5,0.37000000476837158,0.40999999642372131
100,-0.60000002384185791,0,0.60000002384185791,0.60000002384185791,0,0.60000002384185791,0.60000002384185791,1.2000000476837158,0.60000002384185791,0,0,1,0.5,0.37000000476837158,0.40999999642372131
101,-0.60000002384185791,0,0.60000002384185791,0.60000002384185791,1.2000000476837158,0.60000002384185791,-0.60000002384185791,1.2000000476837158,0.60000002384185791,0,0,1,0.5,0.37000000476837158,0.40999999642372131
102,-0.60000002384185791,0,-0.60000002384185791,-0.60000002384185791,0,0.60000002384185791,-0.60000002384185791,1.2000000476837158,0.60000002384185791,-1,0,0,0.5,0.37000000476837158,0.40999999642372131
103,-0.60000002384185791,0,-0.60000002384185791,-0.60000002384185791,1.2000000476837158,0.60000002384185791,-0.60000002384185791,1.2000000476837158,-0.60000002384185791,-1,0,0,0.5,0.37000000476837158,0.40999999642372131
104,0.60000002384185791,0,-0.60000002384185791,0.60000002384185791,1.2000000476837158,-0.60000002384185791,0.60000002384185791,1.2000000476837158,0.60000002384185791,1,0,0,0.5,0.37000000476837158,0.40999999642372131
105,0.60000002384185791,0,-0.60000002384185791,0.60000002384185791,1.2000000476837158,0.60000002384185791,0.60000002384185791,0,0.60000002384185791,1,0,0,0.5,0.37000000476837158,0.40999999642372131
106,-0.60000002384185791,0,-0.60000002384185791,0.60000002384185791,0,-0.60000002384185791,0.60000002384185791,0,0.60000002384185791,0,-1,0,0.5,0.37000000476837158,0.40999999642372131
107,-0.60000002384185791,0,-0.60000002384185791,0.60000002384185791,0,0.60000002384185791,-0.60000002384185791,0,0.60000002384185791,0,-1,0,0.5,0.37000000476837158,0.40999999642372131
108,-0.60000002384185791,1.2000000476837158,-0.60000002384185791,-0.60000002384185791,1.2000000476837158,0.60000002384185791,0.60000002384185791,1.2000000476837158,0.60000002384185791,0,1,0,0.5,0.37000000476837158,0.40999999642372131
109,-0.60000002384185791,1.2000000476837158,-0.60000002384185791,0.60000002384185791,1.2000000476837158,0.60000002384185791,0.60000002384185791,1.2000000476837158,-0.60000002384185791,0,1,0,0.5,0.37000000476837158,0.40999999642372131
110,-0.60000002384185791,0,-0.60000002384185791,-0.60000002384185791,1.2000000476837158,-0.60000002384185791,0.60000002384185791,1.2000000476837158,-0.60000002384185791,0,0,-1,0.60000002384185791,0.43999999761581421,0.49000000953674316
111,-0.60000002384185791,0,-0.60000002384185791,0.60000002384185791,1.2000000476837158,-0.60000002384185791,0.60000002384185791,0,-0.60000002384185791,0,0,-1,0.60000002384185791,0.43999999761581421,0.49000000953674316
112,-0.60000002384185791,0,0.60000002384185791,0.60000002384185791,0,0.60000002384185791,0.60000002384185791,1.2000000476837158,0.60000002384185791,0,0,1,0.60000002384185791,0.43999999761581421,0.49000000953674316
113,-0.60000002384185791,0,0.60000002384185791,0.60000002384185791,1.2000000476837158,0.60000002384185791,-0.60000002384185791,1.2000000476837158,0.60000002384185791,0,0,1,0.60000002384185791,0.43999999761581421,0.49000000953674316
114,-0.60000002384185791,0,-0.60000002384185791,-0.60000002384185791,0,0.60000002384185791,-0.60000002384185791,1.2000000476837158,0.60000002384185791,-1,0,0,0.60000002384185791,0.43999999761581421,0.49000000953674316
115,-0.60000002384185791,0,-0.60000002384185791,-0.60000002384185791,1.2000000476837158,0.60000002384185791,-0.60000002384185791,1.2000000476837158,-0.60000002384185791,-1,0,0,0.60000002384185791,0.43999999761581421,0.49000000953674316
116,0.60000002384185791,0,-0.60000002384185791,0.60000002384185791,1.2000000476837158,-0.60000002384185791,0.60000002384185791,1.2000000476837158,0.60000002384185791,1,0,0,0.60000002384185791,0.43999999761581421,0.49000000953674316
117,0.60000002384185791,0,-0.60000002384185791,0.60000002384185791,1.2000000476837158,0.60000002384185791,0.60000002384185791,0,0.60000002384185791,1,0,0,0.60000002384185791,0.43999999761581421,0.49000000953674316
118,-0.60000002384185791,0,-0.60000002384185791,0.60000002384185791,0,-0.60000002384185791,0.60000002384185791,0,0.60000002384185791,0,-1,0,0.60000002384185791,0.43999999761581421,0.49000000953674316
119,-0.60000002384185791,0,-0.60000002384185791,0.60000002384185791,0,0.60000002384185791,-0.60000002384185791,0,0.60000002384185791,0,-1,0,0.60000002384185791,0.43999999761581421,0.49000000953674316
120,-0.60000002384185791,1.2000000476837158,-0.60000002384185791,-0.60000002384185791,1.2000000476837158,0.60000002384185791,0.60000002384185791,1.2000000476837158,0.60000002384185791,0,1,0,0.60000002384185791,0.43999999761581421,0.49000000953674316
121,-0.60000002384185791,1.2000000476837158,-0.60000002384185791,0.60000002384185791,1.2000000476837158,0.60000002384185791,0.60000002384185791,1.2000000476837158,-0.60000002384185791,0,1,0,0.60000002384185791,0.43999999761581421,0.49000000953674316
122,-0.60000002384185791,0,-0.60000002384185791,-0.60000002384185791,1.2000000476837158,-0.60000002384185791,0.60000002384185791,1.2000000476837158,-0.60000002384185791,0,0,-1,0.20000000298023224,0.50999999046325684,0.56999999284744263
123,-0.60000002384185791,0,-0.60000002384185791,0.60000002384185791,1.2000000476837158,-0.60000002384185791,0.60000002384185791,0,-0.60000002384185791,0,0,-1,0.20000000298023224,0.50999999046325684,0.56999999284744263
124,-0.60000002384185791,0,0.60000002384185791,0.60000002384185791,0,0.60000002384185791,0.60000002384185791,1.2000000476837158,0.60000002384185791,0,0,1,0.20000000298023224,0.50999999046325684,0.56999999284744263
125,-0.60000002384185791,0,0.60000002384185791,0.60000002384185791,1.2000000476837158,0.60000002384185791,-0.60000002384185791,1.2000000476837158,0.60000002384185791,0,0,1,0.20000000298023224,0.50999999046325684,0.56999999284744263
126,-0.60000002384185791,0,-0.60000002384185791,-0.60000002384185791,0,0.60000002384185791,-0.60000002384185791,1.2000000476837158,0.60000002384185791,-1,0,0,0.20000000298023224,0.50999999046325684,0.56999999284744263
127,-0.60000002384185791,0,-0.60000002384185791,-0.60000002384185791,1.2000000476837158,0.60000002384185791,-0.60000002384185791,1.2000000476837158,-0.60000002384185791,-1,0,0,0.20000000298023224,0.50999999046325684,0.56999999284744263
128,0.60000002384185791,0,-0.60000002384185791,0.60000002384185791,1.2000000476837158,-0.60000002384185791,0.60000002384185791,1.2000000476837158,0.60000002384185791,1,0,0,0.20000000298023224,0.50999999046325684,0.56999999284744263
129,0.60000002384185791,0,-0.60000002384185791,0.60000002384185791,1.2000000476837158,0.60000002384185791,0.60000002384185791,0,0.60000002384185791,1,0,0,0.20000000298023224,0.50999999046325684,0.56999999284744263
130,-0.60000002384185791,0,-0.60000002384185791,0.60000002384185791,0,-0.60000002384185791,0.60000002384185791,0,0.60000002384185791,0,-1,0,0.20000000298023224,0.50999999046325684,0.56999999284744263
131,-0.60000002384185791,0,-0.60000002384185791,0.60000002384185791,0,0.60000002384185791,-0.60000002384185791,0,0.60000002384185791,0,-1,0,0.20000000298023224,0.50999999046325684,0.56999999284744263
132,-0.60000002384185791,1.2000000476837158,-0.60000002384185791,-0.60000002384185791,1.2000000476837158,0.60000002384185791,0.60000002384185791,1.2000000476837158,0.60000002384185791,0,1,0,0.20000000298023224,0.50999999046325684,0.56999999284744263
133,-0.60000002384185791,1.2000000476837158,-0.60000002384185791,0.60000002384185791,1.2000000476837158,0.60000002384185791,0.60000002384185791,1.2000000476837158,-0.60000002384185791,0,1,0,0.20000000298023224,0.50999999046325684,0.56999999284744263
134,-0.60000002384185791,0,-0.60000002384185791,-0.60000002384185791,1.2000000476837158,-0.60000002384185791,0.60000002384185791,1.2000000476837158,-0.60000002384185791,0,0,-1,0.30000001192092896,0.57999998331069946,0.64999997615814209
135,-0.60000002384185791,0,-0.60000002384185791,0.60000002384185791,1.2000000476837158,-0.60000002384185791,0.60000002384185791,0,-0.60000002384185791,0,0,-1,0.30000001192092896,0.57999998331069946,0.64999997615814209
136,-0.60000002384185791,0,0.60000002384185791,0.60000002384185791,0,0.60000002384185791,0.60000002384185791,1.2000000476837158,0.60000002384185791,0,0,1,0.30000001192092896,0.57999998331069946,0.64999997615814209
137,-0.60000002384185791,0,0.60000002384185791,0.60000002384185791,1.2000000476837158,0.60000002384185791,-0.60000002384185791,1.2000000476837158,0.60000002384185791,0,0,1,0.30000001192092896,0.57999998331069946,0.64999997615814209
138,-0.60000002384185791,0,-0.60000002384185791,-0.60000002384185791,0,0.60000002384185791,-0.60000002384185791,1.2000000476837158,0.60000002384185791,-1,0,0,0.30000001192092896,0.57999998331069946,0.64999997615814209
139,-0.60000002384185791,0,-0.60000002384185791,-0.60000002384185791,1.2000000476837158,0.60000002384185791,-0.60000002384185791,1.2000000476837158,-0.60000002384185791,-1,0,0,0.30000001192092896,0.57999998331069946,0.64999997615814209
140,0.60000002384185791,0,-0.60000002384185791,0.60000002384185791,1.2000000476837158,-0.60000002384185791,0.60000002384185791,1.2000000476837158,0.60000002384185791,1,0,0,0.30000001192092896,0.57999998331069946,0.64999997615814209
141,0.60000002384185791,0,-0.60000002384185791,0.60000002384185791,1.2000000476837158,0.60000002384185791,0.60000002384185791,0,0.60000002384185791,1,0,0,0.30000001192092896,0.57999998331069946,0.64999997615814209
142,-0.60000002384185791,0,-0.60000002384185791,0.60000002384185791,0,-0.60000002384185791,0.60000002384185791,0,0.60000002384185791,0,-1,0,0.30000001192092896,0.57999998331069946,0.64999997615814209
143,-0.60000002384185791,0,-0.60000002384185791,0.60000002384185791,0,0.60000002384185791,-0.60000002384185791,0,0.60000002384185791,0,-1,0,0.30000001192092896,0.57999998331069946,0.64999997615814209
144,-0.60000002384185791,1.2000000476837158,-0.60000002384185791,-0.60000002384185791,1.2000000476837158,0.60000002384185791,0.60000002384185791,1.2000000476837158,0.60000002384185791,0,1,0,0.30000001192092896,0.57999998331069946,0.64999997615814209
145,-0.60000002384185791,1.2000000476837158,-0.60000002384185791,0.60000002384185791,1.2000000476837158,0.60000002384185791,0.60000002384185791,1.2000000476837158,-0.60000002384185791,0,1,0,0.30000001192092896,0.57999998331069946,0.64999997615814209
146,-0.60000002384185791,0,-0.60000002384185791,-0.60000002384185791,1.2000000476837158,-0.60000002384185791,0.60000002384185791,1.2000000476837158,-0.60000002384185791,0,0,-1,0.40000000596046448,0.64999997615814209,0.25
147,-0.60000002384185791,0,-0.60000002384185791,0.60000002384185791,1.2000000476837158,-0.60000002384185791,0.60000002384185791,0,-0.60000002384185791,0,0,-1,0.40000000596046448,0.64999997615814209,0.25
148,-0.60000002384185791,0,0.60000002384185791,0.60000002384185791,0,0.60000002384185791,0.60000002384185791,1.2000000476837158,0.60000002384185791,0,0,1,0.40000000596046448,0.64999997615814209,0.25
149,-0.60000002384185791,0,0.60000002384185791,0.60000002384185791,1.2000000476837158,0.60000002384185791,-0.60000002384185791,1.2000000476837158,0.60000002384185791,0,0,1,0.40000000596046448,0.64999997615814209,0.25
150,-0.60000002384185791,0,-0.60000002384185791,-0.60000002384185791,0,0.60000002384185791,-0.60000002384185791,1.2000000476837158,0.60000002384185791,-1,0,0,0.40000000596046448,0.64999997615814209,0.25
151,-0.60000002384185791,0,-0.60000002384185791,-0.60000002384185791,1.2000000476837158,0.60000002384185791,-0.60000002384185791,1.2000000476837158,-0.60000002384185791,-1,0,0,0.40000000596046448,0.64999997615814209,0.25
152,0.60000002384185791,0,-0.60000002384185791,0.60000002384185791,1.2000000476837158,-0.60000002384185791,0.60000002384185791,1.2000000476837158,0.60000002384185791,1,0,0,0.40000000596046448,0.64999997615814209,0.25
153,0.60000002384185791,0,-0.60000002384185791,0.60000002384185791,1.2000000476837158,0.60000002384185791,0.60000002384185791,0,0.60000002384185791,1,0,0,0.40000000596046448,0.64999997615814209,0.25
154,-0.60000002384185791,0,-0.60000002384185791,0.60000002384185791,0,-0.60000002384185791,0.60000002384185791,0,0.60000002384185791,0,-1,0,0.40000000596046448,0.64999997615814209,0.25
155,-0.60000002384185791,0,-0.60000002384185791,0.60000002384185791,0,0.60000002384185791,-0.60000002384185791,0,0.60000002384185791,0,-1,0,0.40000000596046448,0.64999997615814209,0.25
156,-0.60000002384185791,1.2000000476837158,-0.60000002384185791,-0.60000002384185791,1.2000000476837158,0.60000002384185791,0.60000002384185791,1.2000000476837158,0.60000002384185791,0,1,0,0.40000000596046448,0.64999997615814209,0.25
157,-0.60000002384185791,1.2000000476837158,-0.60000002384185791,0.60000002384185791,1.2000000476837158,0.60000002384185791,0.60000002384185791,1.2000000476837158,-0.60000002384185791,0,1,0,0.40000000596046448,0.64999997615814209,0.25
158,-0.60000002384185791,0,-0.60000002384185791,-0.60000002384185791,1.2000000476837158,-0.60000002384185791,0.60000002384185791,1.2000000476837158,-0.60000002384185791,0,0,-1,0.5,0.72000002861022949,0.33000001311302185
159,-0.60000002384185791,0,-0.60000002384185791,0.60000002384185791,1.2000000476837158,-0.60000002384185791,0.60000002384185791,0,-0.60000002384185791,0,0,-1,0.5,0.72000002861022949,0.33000001311302185
160,-0.60000002384185791,0,0.60000002384185791,0.60000002384185791,0,0.60000002384185791,0.60000002384185791,1.2000000476837158,0.60000002384185791,0,0,1,0.5,0.72000002861022949,0.33000001311302185
161,-0.60000002384185791,0,0.60000002384185791,0.60000002384185791,1.2000000476837158,0.60000002384185791,-0.60000002384185791,1.2000000476837158,0.60000002384185791,0,0,1,0.5,0.72000002861022949,0.33000001311302185
162,-0.60000002384185791,0,-0.60000002384185791,-0.60000002384185791,0,0.60000002384185791,-0.60000002384185791,1.2000000476837158,0.60000002384185791,-1,0,0,0.5,0.72000002861022949,0.33000001311302185
163,-0.60000002384185791,0,-0.60000002384185791,-0.60000002384185791,1.2000000476837158,0.60000002384185791,-0.60000002384185791,1.2000000476837158,-0.60000002384185791,-1,0,0,0.5,0.72000002861022949,0.33000001311302185
164,0.60000002384185791,0,-0.60000002384185791,0.60000002384185791,1.2000000476837158,-0.60000002384185791,0.60000002384185791,1.2000000476837158,0.60000002384185791,1,0,0,0.5,0.72000002861022949,0.33000001311302185
165,0.60000002384185791,0,-0.60000002384185791,0.60000002384185791,1.2000000476837158,0.60000002384185791,0.60000002384185791,0,0.60000002384185791,1,0,0,0.5,0.72000002861022949,0.33000001311302185
166,-0.60000002384185791,0,-0.60000002384185791,0.60000002384185791,0,-0.60000002384185791,0.60000002384185791,0,0.60000002384185791,0,-1,0,0.5,0.72000002861022949,0.33000001311302185
167,-0.60000002384185791,0,-0.60000002384185791,0.60000002384185791,0,0.60000002384185791,-0.60000002384185791,0,0.60000002384185791,0,-1,0,0.5,0.72000002861022949,0.33000001311302185
168,-0.60000002384185791,1.2000000476837158,-0.60000002384185791,-0.60000002384185791,1.2000000476837158,0.60000002384185791,0.60000002384185791,1.2000000476837158,0.60000002384185791,0,1,0,0.5,0.72000002861022949,0.33000001311302185
169,-0.60000002384185791,1.2000000476837158,-0.60000002384185791,0.60000002384185791,1.2000000476837158,0.60000002384185791,0.60000002384185791,1.2000000476837158,-0.60000002384185791,0,1,0,0.5,0.72000002861022949,0.33000001311302185
170,-0.60000002384185791,0,-0.60000002384185791,-0.60000002384185791,1.2000000476837158,-0.60000002384185791,0.60000002384185791,1.2000000476837158,-0.60000002384185791,0,0,-1,0.60000002384185791,0.30000001192092896,0.40999999642372131
171,-0.60000002384185791,0,-0.60000002384185791,0.60000002384185791,1.2000000476837158,-0.60000002384185791,0.60000002384185791,0,-0.60000002384185791,0,0,-1,0.60000002384185791,0.30000001192092896,0.40999999642372131
172,-0.60000002384185791,0,0.60000002384185791,0.60000002384185791,0,0.60000002384185791,0.60000002384185791,1.2000000476837158,0.60000002384185791,0,0,1,0.60000002384185791,0.30000001192092896,0.40999999642372131
173,-0.60000002384185791,0,0.60000002384185791,0.60000002384185791,1.2000000476837158,0.60000002384185791,-0.60000002384185791,1.2000000476837158,0.60000002384185791,0,0,1,0.60000002384185791,0.30000001192092896,0.40999999642372131
174,-0.60000002384185791,0,-0.60000002384185791,-0.60000002384185791,0,0.60000002384185791,-0.60000002384185791,1.2000000476837158,0.60000002384185791,-1,0,0,0.60000002384185791,0.30000001192092896,0.40999999642372131
175,-0.60000002384185791,0,-0.60000002384185791,-0.60000002384185791,1.2000000476837158,0.60000002384185791,-0.60000002384185791,1.2000000476837158,-0.60000002384185791,-1,0,0,0.60000002384185791,0.30000001192092896,0.40999999642372131
176,0.60000002384185791,0,-0.60000002384185791,0.60000002384185791,1.2000000476837158,-0.60000002384185791,0.60000002384185791,1.2000000476837158,0.60000002384185791,1,0,0,0.60000002384185791,0.30000001192092896,0.40999999642372131
177,0.60000002384185791,0,-0.60000002384185791,0.60000002384185791,1.2000000476837158,0.60000002384185791,0.60000002384185791,0,0.60000002384185791,1,0,0,0.60000002384185791,0.30000001192092896,0.40999999642372131
178,-0.60000002384185791,0,-0.60000002384185791,0.60000002384185791,0,-0.60000002384185791,0.60000002384185791,0,0.60000002384185791,0,-1,0,0.60000002384185791,0.30000001192092896,0.40999999642372131
179,-0.60000002384185791,0,-0.60000002384185791,0.60000002384185791,0,0.60000002384185791,-0.60000002384185791,0,0.60000002384185791,0,-1,0,0.60000002384185791,0.30000001192092896,0.40999999642372131
180,-0.60000002384185791,1.2000000476837158,-0.60000002384185791,-0.60000002384185791,1.2000000476837158,0.60000002384185791,0.60000002384185791,1.2000000476837158,0.60000002384185791,0,1,0,0.60000002384185791,0.30000001192092896,0.40999999642372131
181,-0.60000002384185791,1.2000000476837158,-0.60000002384185791,0.60000002384185791,1.2000000476837158,0.60000002384185791,0.60000002384185791,1.2000000476837158,-0.60000002384185791,0,1,0,0.60000002384185791,0.30000001192092896,0.40999999642372131
182,-0.60000002384185791,0,-0.60000002384185791,-0.60000002384185791,1.2000000476837158,-0.60000002384185791,0.60000002384185791,1.2000000476837158,-0.60000002384185791,0,0,-1,0.20000000298023224,0.37000000476837158,0.49000000953674316
183,-0.60000002384185791,0,-0.60000002384185791,0.60000002384185791,1.2000000476837158,-0.60000002384185791,0.60000002384185791,0,-0.60000002384185791,0,0,-1,0.20000000298023224,0.37000000476837158,0.49000000953674316
184,-0.60000002384185791,0,0.60000002384185791,0.60000002384185791,0,0.60000002384185791,0.60000002384185791,1.2000000476837158,0.60000002384185791,0,0,1,0.20000000298023224,0.37000000476837158,0.49000000953674316
185,-0.60000002384185791,0,0.60000002384185791,0.60000002384185791,1.2000000476837158,0.60000002384185791,-0.60000002384185791,1.2000000476837158,0.60000002384185791,0,0,1,0.20000000298023224,0.37000000476837158,0.49000000953674316
186,-0.60000002384185791,0,-0.60000002384185791,-0.60000002384185791,0,0.60000002384185791,-0.60000002384185791,1.2000000476837158,0.60000002384185791,-1,0,0,0.20000000298023224,0.37000000476837158,0.49000000953674316
187,-0.60000002384185791,0,-0.60000002384185791,-0.60000002384185791,1.2000000476837158,0.60000002384185791,-0.60000002384185791,1.2000000476837158,-0.60000002384185791,-1,0,0,0.20000000298023224,0.37000000476837158,0.49000000953674316
188,0.60000002384185791,0,-0.60000002384185791,0.60000002384185791,1.2000000476837158,-0.60000002384185791,0.60000002384185791,1.2000000476837158,0.60000002384185791,1,0,0,0.20000000298023224,0.37000000476837158,0.49000000953674316
189,0.60000002384185791,0,-0.60000002384185791,0.60000002384185791,1.2000000476837158,0.60000002384185791,0.60000002384185791,0,0.60000002384185791,1,0,0,0.20000000298023224,0.37000000476837158,0.49000000953674316
190,-0.60000002384185791,0,-0.60000002384185791,0.60000002384185791,0,-0.60000002384185791,0.60000002384185791,0,0.60000002384185791,0,-1,0,0.20000000298023224,0.37000000476837158,0.49000000953674316
191,-0.60000002384185791,0,-0.60000002384185791,0.60000002384185791,0,0.60000002384185791,-0.60000002384185791,0,0.60000002384185791,0,-1,0,0.20000000298023224,0.37000000476837158,0.49000000953674316
192,-0.60000002384185791,1.2000000476837158,-0.60000002384185791,-0.60000002384185791,1.2000000476837158,0.60000002384185791,0.60000002384185791,1.2000000476837158,0.60000002384185791,0,1,0,0.20000000298023224,0.37000000476837158,0.49000000953674316
193,-0.60000002384185791,1.2000000476837158,-0.60000002384185791,0.60000002384185791,1.2000000476837158,0.60000002384185791,0.60000002384185791,1.2000000476837158,-0.60000002384185791,0,1,0,0.20000000298023224,0.37000000476837158,0.49000000953674316
194,-0.60000002384185791,0,-0.60000002384185791,-0.60000002384185791,1.2000000476837158,-0.60000002384185791,0.60000002384185791,1.2000000476837158,-0.60000002384185791,0,0,-1,0.30000001192092896,0.43999999761581421,0.56999999284744263
195,-0.60000002384185791,0,-0.60000002384185791,0.60000002384185791,1.2000000476837158,-0.60000002384185791,0.60000002384185791,0,-0.60000002384185791,0,0,-1,0.30000001192092896,0.43999999761581421,0.56999999284744263
196,-0.60000002384185791,0,0.60000002384185791,0.60000002384185791,0,0.60000002384185791,0.60000002384185791,1.2000000476837158,0.60000002384185791,0,0,1,0.30000001192092896,0.43999999761581421,0.56999999284744263
197,-0.60000002384185791,0,0.60000002384185791,0.60000002384185791,1.2000000476837158,0.60000002384185791,-0.60000002384185791,1.2000000476837158,0.60000002384185791,0,0,1,0.30000001192092896,0.43999999761581421,0.56999999284744263
198,-0.60000002384185791,0,-0.60000002384185791,-0.60000002384185791,0,0.60000002384185791,-0.60000002384185791,1.2000000476837158,0.60000002384185791,-1,0,0,0.30000001192092896,0.43999999761581421,0.56999999284744263
199,-0.60000002384185791,0,-0.60000002384185791,-0.60000002384185791,1.2000000476837158,0.60000002384185791,-0.60000002384185791,1.2000000476837158,-0.60000002384185791,-1,0,0,0.30000001192092896,0.43999999761581421,0.56999999284744263
200,0.60000002384185791,0,-0.60000002384185791,0.60000002384185791,1.2000000476837158,-0.60000002384185791,0.60000002384185791,1.2000000476837158,0.60000002384185791,1,0,0,0.30000001192092896,0.43999999761581421,0.56999999284744263
201,0.60000002384185791,0,-0.60000002384185791,0.60000002384185791,1.2000000476837158,0.60000002384185791,0.60000002384185791,0,0.60000002384185791,1,0,0,0.30000001192092896,0.43999999761581421,0.56999999284744263
202,-0.60000002384185791,0,-0.60000002384185791,0.60000002384185791,0,-0.60000002384185791,0.60000002384185791,0,0.60000002384185791,0,-1,0,0.30000001192092896,0.43999999761581421,0.56999999284744263
203,-0.60000002384185791,0,-0.60000002384185791,0.60000002384185791,0,0.60000002384185791,-0.60000002384185791,0,0.60000002384185791,0,-1,0,0.30000001192092896,0.43999999761581421,0.56999999284744263
204,-0.60000002384185791,1.2000000476837158,-0.60000002384185791,-0.60000002384185791,1.2000000476837158,0.60000002384185791,0.60000002384185791,1.2000000476837158,0.60000002384185791,0,1,0,0.30000001192092896,0.43999999761581421,0.56999999284744263
205,-0.60000002384185791,1.2000000476837158,-0.60000002384185791,0.60000002384185791,1.2000000476837158,0.60000002384185791,0.60000002384185791,1.2000000476837158,-0.60000002384185791,0,1,0,0.30000001192092896,0.43999999761581421,0.56999999284744263
206,-0.60000002384185791,0,-0.60000002384185791,-0.60000002384185791,1.2000000476837158,-0.60000002384185791,0.60000002384185791,1.2000000476837158,-0.60000002384185791,0,0,-1,0.40000000596046448,0.50999999046325684,0.64999997615814209
207,-0.60000002384185791,0,-0.60000002384185791,0.60000002384185791,1.2000000476837158,-0.60000002384185791,0.60000002384185791,0,-0.60000002384185791,0,0,-1,0.40000000596046448,0.50999999046325684,0.64999997615814209
208,-0.60000002384185791,0,0.60000002384185791,0.60000002384185791,0,0.60000002384185791,0.60000002384185791,1.2000000476837158,0.60000002384185791,0,0,1,0.40000000596046448,0.50999999046325684,0.64999997615814209
209,-0.60000002384185791,0,0.60000002384185791,0.60000002384185791,1.2000000476837158,0.60000002384185791,-0.60000002384185791,1.2000000476837158,0.60000002384185791,0,0,1,0.40000000596046448,0.50999999046325684,0.64999997615814209
210,-0.60000002384185791,0,-0.60000002384185791,-0.60000002384185791,0,0.60000002384185791,-0.60000002384185791,1.2000000476837158,0.60000002384185791,-1,0,0,0.40000000596046448,0.50999999046325684,0.64999997615814209
211,-0.60000002384185791,0,-0.60000002384185791,-0.60000002384185791,1.2000000476837158,0.60000002384185791,-0.60000002384185791,1.2000000476837158,-0.60000002384185791,-1,0,0,0.40000000596046448,0.50999999046325684,0.64999997615814209
212,0.60000002384185791,0,-0.60000002384185791,0.60000002384185791,1.2000000476837158,-0.60000002384185791,0.60000002384185791,1.2000000476837158,0.60000002384185791,1,0,0,0.40000000596046448,0.50999999046325684,0.64999997615814209
213,0.60000002384185791,0,-0.60000002384185791,0.60000002384185791,1.2000000476837158,0.60000002384185791,0.60000002384185791,0,0.60000002384185791,1,0,0,0.40000000596046448,0.50999999046325684,0.64999997615814209
214,-0.60000002384185791,0,-0.60000002384185791,0.60000002384185791,0,-0.60000002384185791,0.60000002384185791,0,0.60000002384185791,0,-1,0,0.40000000596046448,0.50999999046325684,0.64999997615814209
215,-0.60000002384185791,0,-0.60000002384185791,0.60000002384185791,0,0.60000002384185791,-0.60000002384185791,0,0.60000002384185791,0,-1,0,0.40000000596046448,0.50999999046325684,0.64999997615814209
216,-0.60000002384185791,1.2000000476837158,-0.60000002384185791,-0.60000002384185791,1.2000000476837158,0.60000002384185791,0.60000002384185791,1.2000000476837158,0.60000002384185791,0,1,0,0.40000000596046448,0.50999999046325684,0.64999997615814209
217,-0.60000002384185791,1.2000000476837158,-0.60000002384185791,0.60000002384185791,1.2000000476837158,0.60000002384185791,0.60000002384185791,1.2000000476837158,-0.60000002384185791,0,1,0,0.40000000596046448,0.50999999046325684,0.64999997615814209
218,-0.60000002384185791,0,-0.60000002384185791,-0.60000002384185791,1.2000000476837158,-0.60000002384185791,0.60000002384185791,1.2000000476837158,-0.60000002384185791,0,0,-1,0.5,0.57999998331069946,0.25
219,-0.60000002384185791,0,-0.60000002384185791,0.60000002384185791,1.2000000476837158,-0.60000002384185791,0.60000002384185791,0,-0.60000002384185791,0,0,-1,0.5,0.57999998331069946,0.25
220,-0.60000002384185791,0,0.60000002384185791,0.60000002384185791,0,0.60000002384185791,0.60000002384185791,1.2000000476837158,0.60000002384185791,0,0,1,0.5,0.57999998331069946,0.25
221,-0.60000002384185791,0,0.60000002384185791,0.60000002384185791,1.2000000476837158,0.60000002384185791,-0.60000002384185791,1.2000000476837158,0.60000002384185791,0,0,1,0.5,0.57999998331069946,0.25
222,-0.60000002384185791,0,-0.60000002384185791,-0.60000002384185791,0,0.60000002384185791,-0.60000002384185791,1.2000000476837158,0.60000002384185791,-1,0,0,0.5,0.57999998331069946,0.25
223,-0.60000002384185791,0,-0.60000002384185791,-0.60000002384185791,1.2000000476837158,0.60000002384185791,-0.60000002384185791,1.2000000476837158,-0.60000002384185791,-1,0,0,0.5,0.57999998331069946,0.25
224,0.60000002384185791,0,-0.60000002384185791,0.60000002384185791,1.2000000476837158,-0.60000002384185791,0.60000002384185791,1.2000000476837158,0.60000002384185791,1,0,0,0.5,0.57999998331069946,0.25
225,0.60000002384185791,0,-0.60000002384185791,0.60000002384185791,1.2000000476837158,0.60000002384185791,0.60000002384185791,0,0.60000002384185791,1,0,0,0.5,0.57999998331069946,0.25
226,-0.60000002384185791,0,-0.60000002384185791,0.60000002384185791,0,-0.60000002384185791,0.60000002384185791,0,0.60000002384185791,0,-1,0,0.5,0.57999998331069946,0.25
227,-0.60000002384185791,0,-0.60000002384185791,0.60000002384185791,0,0.60000002384185791,-0.60000002384185791,0,0.60000002384185791,0,-1,0,0.5,0.57999998331069946,0.25
228,-0.60000002384185791,1.2000000476837158,-0.60000002384185791,-0.60000002384185791,1.2000000476837158,0.60000002384185791,0.60000002384185791,1.2000000476837158,0.60000002384185791,0,1,0,0.5,0.57999998331069946,0.25
229,-0.60000002384185791,1.2000000476837158,-0.60000002384185791,0.60000002384185791,1.2000000476837158,0.60000002384185791,0.60000002384185791,1.2000000476837158,-0.60000002384185791,0,1,0,0.5,0.57999998331069946,0.25
230,-0.60000002384185791,0,-0.60000002384185791,-0.60000002384185791,1.2000000476837158,-0.60000002384185791,0.60000002384185791,1.2000000476837158,-0.60000002384185791,0,0,-1,0.60000002384185791,0.64999997615814209,0.33000001311302185
231,-0.60000002384185791,0,-0.60000002384185791,0.60000002384185791,1.2000000476837158,-0.60000002384185791,0.60000002384185791,0,-0.60000002384185791,0,0,-1,0.60000002384185791,0.64999997615814209,0.33000001311302185
232,-0.60000002384185791,0,0.60000002384185791,0.60000002384185791,0,0.60000002384185791,0.60000002384185791,1.2000000476837158,0.60000002384185791,0,0,1,0.60000002384185791,0.64999997615814209,0.33000001311302185
233,-0.60000002384185791,0,0.60000002384185791,0.60000002384185791,1.2000000476837158,0.60000002384185791,-0.60000002384185791,1.2000000476837158,0.60000002384185791,0,0,1,0.60000002384185791,0.64999997615814209,0.33000001311302185
234,-0.60000002384185791,0,-0.60000002384185791,-0.60000002384185791,0,0.60000002384185791,-0.60000002384185791,1.2000000476837158,0.60000002384185791,-1,0,0,0.60000002384185791,0.64999997615814209,0.33000001311302185
235,-0.60000002384185791,0,-0.60000002384185791,-0.60000002384185791,1.2000000476837158,0.60000002384185791,-0.60000002384185791,1.2000000476837158,-0.60000002384185791,-1,0,0,0.60000002384185791,0.64999997615814209,0.33000001311302185
236,0.60000002384185791,0,-0.60000002384185791,0.60000002384185791,1.2000000476837158,-0.60000002384185791,0.60000002384185791,1.2000000476837158,0.60000002384185791,1,0,0,0.60000002384185791,0.64999997615814209,0.33000001311302185
237,0.60000002384185791,0,-0.60000002384185791,0.60000002384185791,1.2000000476837158,0.60000002384185791,0.60000002384185791,0,0.60000002384185791,1,0,0,0.60000002384185791,0.64999997615814209,0.33000001311302185
238,-0.60000002384185791,0,-0.60000002384185791,0.60000002384185791,0,-0.60000002384185791,0.60000002384185791,0,0.60000002384185791,0,-1,0,0.60000002384185791,0.64999997615814209,0.33000001311302185
239,-0.60000002384185791,0,-0.60000002384185791,0.60000002384185791,0,0.60000002384185791,-0.60000002384185791,0,0.60000002384185791,0,-1,0,0.60000002384185791,0.64999997615814209,0.33000001311302185
240,-0.60000002384185791,1.2000000476837158,-0.60000002384185791,-0.60000002384185791,1.2000000476837158,0.60000002384185791,0.60000002384185791,1.2000000476837158,0.60000002384185791,0,1,0,0.60000002384185791,0.64999997615814209,0.33000001311302185
241,-0.60000002384185791,1.2000000476837158,-0.60000002384185791,0.60000002384185791,1.2000000476837158,0.60000002384185791,0.60000002384185791,1.2000000476837158,-0.60000002384185791,0,1,0,0.60000002384185791,0.64999997615814209,0.33000001311302185
242,-0.60000002384185791,0,-0.60000002384185791,-0.60000002384185791,1.2000000476837158,-0.60000002384185791,0.60000002384185791,1.2000000476837158,-0.60000002384185791,0,0,-1,0.20000000298023224,0.72000002861022949,0.40999999642372131
243,-0.60000002384185791,0,-0.60000002384185791,0.60000002384185791,1.2000000476837158,-0.60000002384185791,0.60000002384185791,0,-0.60000002384185791,0,0,-1,0.20000000298023224,0.72000002861022949,0.40999999642372131
244,-0.60000002384185791,0,0.60000002384185791,0.60000002384185791,0,0.60000002384185791,0.60000002384185791,1.2000000476837158,0.60000002384185791,0,0,1,0.20000000298023224,0.72000002861022949,0.40999999642372131
245,-0.60000002384185791,0,0.60000002384185791,0.60000002384185791,1.2000000476837158,0.60000002384185791,-0.60000002384185791,1.2000000476837158,0.60000002384185791,0,0,1,0.20000000298023224,0.72000002861022949,0.40999999642372131
246,-0.60000002384185791,0,-0.60000002384185791,-0.60000002384185791,0,0.60000002384185791,-0.60000002384185791,1.2000000476837158,0.60000002384185791,-1,0,0,0.20000000298023224,0.72000002861022949,0.40999999642372131
247,-0.60000002384185791,0,-0.60000002384185791,-0.60000002384185791,1.2000000476837158,0.60000002384185791,-0.60000002384185791,1.2000000476837158,-0.60000002384185791,-1,0,0,0.20000000298023224,0.72000002861022949,0.40999999642372131
248,0.60000002384185791,0,-0.60000002384185791,0.60000002384185791,1.2000000476837158,-0.60000002384185791,0.60000002384185791,1.2000000476837158,0.60000002384185791,1,0,0,0.20000000298023224,0.72000002861022949,0.40999999642372131
249,0.60000002384185791,0,-0.60000002384185791,0.60000002384185791,1.2000000476837158,0.60000002384185791,0.60000002384185791,0,0.60000002384185791,1,0,0,0.20000000298023224,0.72000002861022949,0.40999999642372131
250,-0.60000002384185791,0,-0.60000002384185791,0.60000002384185791,0,-0.60000002384185791,0.60000002384185791,0,0.60000002384185791,0,-1,0,0.20000000298023224,0.72000002861022949,0.40999999642372131
251,-0.60000002384185791,0,-0.60000002384185791,0.60000002384185791,0,0.60000002384185791,-0.60000002384185791,0,0.60000002384185791,0,-1,0,0.20000000298023224,0.72000002861022949,0.40999999642372131
252,-0.60000002384185791,1.2000000476837158,-0.60000002384185791,-0.60000002384185791,1.2000000476837158,0.60000002384185791,0.60000002384185791,1.2000000476837158,0.60000002384185791,0,1,0,0.20000000298023224,0.72000002861022949,0.40999999642372131
253,-0.60000002384185791,1.2000000476837158,-0.60000002384185791,0.60000002384185791,1.2000000476837158,0.60000002384185791,0.60000002384185791,1.2000000476837158,-0.60000002384185791,0,1,0,0.20000000298023224,0.72000002861022949,0.40999999642372131
254,-0.60000002384185791,0,-0.60000002384185791,-0.60000002384185791,1.2000000476837158,-0.60000002384185791,0.60000002384185791,1.2000000476837158,-0.60000002384185791,0,0,-1,0.30000001192092896,0.30000001192092896,0.49000000953674316
255,-0.60000002384185791,0,-0.60000002384185791,0.60000002384185791,1.2000000476837158,-0.60000002384185791,0.60000002384185791,0,-0.60000002384185791,0,0,-1,0.30000001192092896,0.30000001192092896,0.49000000953674316
256,-0.60000002384185791,0,0.60000002384185791,0.60000002384185791,0,0.60000002384185791,0.60000002384185791,1.2000000476837158,0.60000002384185791,0,0,1,0.30000001192092896,0.30000001192092896,0.49000000953674316
257,-0.60000002384185791,0,0.60000002384185791,0.60000002384185791,1.2000000476837158,0.60000002384185791,-0.60000002384185791,1.2000000476837158,0.60000002384185791,0,0,1,0.30000001192092896,0.30000001192092896,0.49000000953674316
258,-0.60000002384185791,0,-0.60000002384185791,-0.60000002384185791,0,0.60000002384185791,-0.60000002384185791,1.2000000476837158,0.60000002384185791,-1,0,0,0.30000001192092896,0.30000001192092896,0.49000000953674316
259,-0.60000002384185791,0,-0.60000002384185791,-0.60000002384185791,1.2000000476837158,0.60000002384185791,-0.60000002384185791,1.2000000476837158,-0.60000002384185791,-1,0,0,0.30000001192092896,0.30000001192092896,0.49000000953674316
260,0.60000002384185791,0,-0.60000002384185791,0.60000002384185791,1.2000000476837158,-0.60000002384185791,0.60000002384185791,1.2000000476837158,0.60000002384185791,1,0,0,0.30000001192092896,0.30000001192092896,0.49000000953674316
261,0.60000002384185791,0,-0.60000002384185791,0.60000002384185791,1.2000000476837158,0.60000002384185791,0.60000002384185791,0,0.60000002384185791,1,0,0,0.30000001192092896,0.30000001192092896,0.49000000953674316
262,-0.60000002384185791,0,-0.60000002384185791,0.60000002384185791,0,-0.60000002384185791,0.60000002384185791,0,0.60000002384185791,0,-1,0,0.30000001192092896,0.30000001192092896,0.49000000953674316
263,-0.60000002384185791,0,-0.60000002384185791,0.60000002384185791,0,0.60000002384185791,-0.60000002384185791,0,0.60000002384185791,0,-1,0,0.30000001192092896,0.30000001192092896,0.49000000953674316
264,-0.60000002384185791,1.2000000476837158,-0.60000002384185791,-0.60000002384185791,1.2000000476837158,0.60000002384185791,0.60000002384185791,1.2000000476837158,0.60000002384185791,0,1,0,0.30000001192092896,0.30000001192092896,0.49000000953674316
265,-0.60000002384185791,1.2000000476837158,-0.60000002384185791,0.60000002384185791,1.2000000476837158,0.60000002384185791,0.60000002384185791,1.2000000476837158,-0.60000002384185791,0,1,0,0.30000001192092896,0.30000001192092896,0.49000000953674316
266,-0.60000002384185791,0,-0.60000002384185791,-0.60000002384185791,1.2000000476837158,-0.60000002384185791,0.60000002384185791,1.2000000476837158,-0.60000002384185791,0,0,-1,0.40000000596046448,0.37000000476837158,0.56999999284744263
267,-0.60000002384185791,0,-0.60000002384185791,0.60000002384185791,1.2000000476837158,-0.60000002384185791,0.60000002384185791,0,-0.60000002384185791,0,0,-1,0.40000000596046448,0.37000000476837158,0.56999999284744263
268,-0.60000002384185791,0,0.60000002384185791,0.60000002384185791,0,0.60000002384185791,0.60000002384185791,1.2000000476837158,0.60000002384185791,0,0,1,0.40000000596046448,0.37000000476837158,0.56999999284744263
269,-0.60000002384185791,0,0.60000002384185791,0.60000002384185791,1.2000000476837158,0.60000002384185791,-0.60000002384185791,1.2000000476837158,0.60000002384185791,0,0,1,0.40000000596046448,0.37000000476837158,0.56999999284744263
270,-0.60000002384185791,0,-0.60000002384185791,-0.60000002384185791,0,0.60000002384185791,-0.60000002384185791,1.2000000476837158,0.60000002384185791,-1,0,0,0.40000000596046448,0.37000000476837158,0.56999999284744263
271,-0.60000002384185791,0,-0.60000002384185791,-0.60000002384185791,1.2000000476837158,0.60000002384185791,-0.60000002384185791,1.2000000476837158,-0.60000002384185791,-1,0,0,0.40000000596046448,0.37000000476837158,0.56999999284744263
272,0.60000002384185791,0,-0.60000002384185791,0.60000002384185791,1.2000000476837158,-0.60000002384185791,0.60000002384185791,1.2000000476837158,0.60000002384185791,1,0,0,0.40000000596046448,0.37000000476837158,0.56999999284744263
273,0.60000002384185791,0,-0.60000002384185791,0.60000002384185791,1.2000000476837158,0.60000002384185791,0.60000002384185791,0,0.60000002384185791,1,0,0,0.40000000596046448,0.37000000476837158,0.56999999284744263
274,-0.60000002384185791,0,-0.60000002384185791,0.60000002384185791,0,-0.60000002384185791,0.60000002384185791,0,0.60000002384185791,0,-1,0,0.40000000596046448,0.37000000476837158,0.56999999284744263
275,-0.60000002384185791,0,-0.60000002384185791,0.60000002384185791,0,0.60000002384185791,-0.60000002384185791,0,0.60000002384185791,0,-1,0,0.40000000596046448,0.37000000476837158,0.56999999284744263
276,-0.60000002384185791,1.2000000476837158,-0.60000002384185791,-0.60000002384185791,1.2000000476837158,0.60000002384185791,0.60000002384185791,1.2000000476837158,0.60000002384185791,0,1,0,0.40000000596046448,0.37000000476837158,0.56999999284744263
277,-0.60000002384185791,1.2000000476837158,-0.60000002384185791,0.60000002384185791,1.2000000476837158,0.60000002384185791,0.60000002384185791,1.2000000476837158,-0.60000002384185791,0,1,0,0.40000000596046448,0.37000000476837158,0.56999999284744263
278,-0.60000002384185791,0,-0.60000002384185791,-0.60000002384185791,1.2000000476837158,-0.60000002384185791,0.60000002384185791,1.2000000476837158,-0.60000002384185791,0,0,-1,0.5,0.43999999761581421,0.64999997615814209
279,-0.60000002384185791,0,-0.60000002384185791,0.60000002384185791,1.2000000476837158,-0.60000002384185791,0.60000002384185791,0,-0.60000002384185791,0,0,-1,0.5,0.43999999761581421,0.64999997615814209
280,-0.60000002384185791,0,0.60000002384185791,0.60000002384185791,0,0.60000002384185791,0.60000002384185791,1.2000000476837158,0.60000002384185791,0,0,1,0.5,0.43999999761581421,0.64999997615814209
281,-0.60000002384185791,0,0.60000002384185791,0.60000002384185791,1.2000000476837158,0.60000002384185791,-0.60000002384185791,1.2000000476837158,0.60000002384185791,0,0,1,0.5,0.43999999761581421,0.64999997615814209
282,-0.60000002384185791,0,-0.60000002384185791,-0.60000002384185791,0,0.60000002384185791,-0.60000002384185791,1.2000000476837158,0.60000002384185791,-1,0,0,0.5,0.43999999761581421,0.64999997615814209
283,-0.60000002384185791,0,-0.60000002384185791,-0.60000002384185791,1.2000000476837158,0.60000002384185791,-0.60000002384185791,1.2000000476837158,-0.60000002384185791,-1,0,0,0.5,0.43999999761581421,0.64999997615814209
284,0.60000002384185791,0,-0.60000002384185791,0.60000002384185791,1.2000000476837158,-0.60000002384185791,0.60000002384185791,1.2000000476837158,0.60000002384185791,1,0,0,0.5,0.43999999761581421,0.64999997615814209
285,0.60000002384185791,0,-0.60000002384185791,0.60000002384185791,1.2000000476837158,0.60000002384185791,0.60000002384185791,0,0.60000002384185791,1,0,0,0.5,0.43999999761581421,0.64999997615814209
286,-0.60000002384185791,0,-0.60000002384185791,0.60000002384185791,0,-0.60000002384185791,0.60000002384185791,0,0.60000002384185791,0,-1,0,0.5,0.43999999761581421,0.64999997615814209
287,-0.60000002384185791,0,-0.60000002384185791,0.60000002384185791,0,0.60000002384185791,-0.60000002384185791,0,0.60000002384185791,0,-1,0,0.5,0.43999999761581421,0.64999997615814209
288,-0.60000002384185791,1.2000000476837158,-0.60000002384185791,-0.60000002384185791,1.2000000476837158,0.60000002384185791,0.60000002384185791,1.2000000476837158,0.60000002384185791,0,1,0,0.5,0.43999999761581421,0.64999997615814209
289,-0.60000002384185791,1.2000000476837158,-0.60000002384185791,0.60000002384185791,1.2000000476837158,0.60000002384185791,0.60000002384185791,1.2000000476837158,-0.60000002384185791,0,1,0,0.5,0.43999999761581421,0.64999997615814209
290,-0.60000002384185791,0,-0.60000002384185791,-0.60000002384185791,1.2000000476837158,-0.60000002384185791,0.60000002384185791,1.2000000476837158,-0.60000002384185791,0,0,-1,0.60000002384185791,0.50999999046325684,0.25
291,-0.60000002384185791,0,-0.60000002384185791,0.60000002384185791,1.2000000476837158,-0.60000002384185791,0.60000002384185791,0,-0.60000002384185791,0,0,-1,0.60000002384185791,0.50999999046325684,0.25
292,-0.60000002384185791,0,0.60000002384185791,0.60000002384185791,0,0.60000002384185791,0.60000002384185791,1.2000000476837158,0.60000002384185791,0,0,1,0.60000002384185791,0.50999999046325684,0.25
293,-0.60000002384185791,0,0.60000002384185791,0.60000002384185791,1.2000000476837158,0.60000002384185791,-0.60000002384185791,1.2000000476837158,0.60000002384185791,0,0,1,0.60000002384185791,0.50999999046325684,0.25
294,-0.60000002384185791,0,-0.60000002384185791,-0.60000002384185791,0,0.60000002384185791,-0.60000002384185791,1.2000000476837158,0.60000002384185791,-1,0,0,0.60000002384185791,0.50999999046325684,0.25
295,-0.60000002384185791,0,-0.60000002384185791,-0.60000002384185791,1.2000000476837158,0.60000002384185791,-0.60000002384185791,1.2000000476837158,-0.60000002384185791,-1,0,0,0.60000002384185791,0.50999999046325684,0.25
296,0.60000002384185791,0,-0.60000002384185791,0.60000002384185791,1.2000000476837158,-0.60000002384185791,0.60000002384185791,1.2000000476837158,0.60000002384185791,1,0,0,0.60000002384185791,0.50999999046325684,0.25
297,0.60000002384185791,0,-0.60000002384185791,0.60000002384185791,1.2000000476837158,0.60000002384185791,0.60000002384185791,0,0.60000002384185791,1,0,0,0.60000002384185791,0.50999999046325684,0.25
298,-0.60000002384185791,0,-0.60000002384185791,0.60000002384185791,0,-0.60000002384185791,0.60000002384185791,0,0.60000002384185791,0,-1,0,0.60000002384185791,0.50999999046325684,0.25
299,-0.60000002384185791,0,-0.60000002384185791,0.60000002384185791,0,0.60000002384185791,-0.60000002384185791,0,0.60000002384185791,0,-1,0,0.60000002384185791,0.50999999046325684,0.25
300,-0.60000002384185791,1.2000000476837158,-0.60000002384185791,-0.60000002384185791,1.2000000476837158,0.60000002384185791,0.60000002384185791,1.2000000476837158,0.60000002384185791,0,1,0,0.60000002384185791,0.50999999046325684,0.25
301,-0.60000002384185791,1.2000000476837158,-0.60000002384185791,0.60000002384185791,1.2000000476837158,0.60000002384185791,0.60000002384185791,1.2000000476837158,-0.60000002384185791,0,1,0,0.60000002384185791,0.50999999046325684,0.25
302,-0.60000002384185791,0,-0.60000002384185791,-0.60000002384185791,1.2000000476837158,-0.60000002384185791,0.60000002384185791,1.2000000476837158,-0.60000002384185791,0,0,-1,0.20000000298023224,0.57999998331069946,0.33000001311302185
303,-0.60000002384185791,0,-0.60000002384185791,0.60000002384185791,1.2000000476837158,-0.60000002384185791,0.60000002384185791,0,-0.60000002384185791,0,0,-1,0.20000000298023224,0.57999998331069946,0.33000001311302185
304,-0.60000002384185791,0,0.60000002384185791,0.60000002384185791,0,0.60000002384185791,0.60000002384185791,1.2000000476837158,0.60000002384185791,0,0,1,0.20000000298023224,0.57999998331069946,0.33000001311302185
305,-0.60000002384185791,0,0.60000002384185791,0.60000002384185791,1.2000000476837158,0.60000002384185791,-0.60000002384185791,1.2000000476837158,0.60000002384185791,0,0,1,0.20000000298023224,0.57999998331069946,0.33000001311302185
306,-0.60000002384185791,0,-0.60000002384185791,-0.60000002384185791,0,0.60000002384185791,-0.60000002384185791,1.2000000476837158,0.60000002384185791,-1,0,0,0.20000000298023224,0.57999998331069946,0.33000001311302185
307,-0.60000002384185791,0,-0.60000002384185791,-0.60000002384185791,1.2000000476837158,0.60000002384185791,-0.60000002384185791,1.2000000476837158,-0.60000002384185791,-1,0,0,0.20000000298023224,0.57999998331069946,0.33000001311302185
308,0.60000002384185791,0,-0.60000002384185791,0.60000002384185791,1.2000000476837158,-0.60000002384185791,0.60000002384185791,1.2000000476837158,0.60000002384185791,1,0,0,0.20000000298023224,0.57999998331069946,0.33000001311302185
309,0.60000002384185791,0,-0.60000002384185791,0.60000002384185791,1.2000000476837158,0.60000002384185791,0.60000002384185791,0,0.60000002384185791,1,0,0,0.20000000298023224,0.57999998331069946,0.33000001311302185
310,-0.60000002384185791,0,-0.60000002384185791,0.60000002384185791,0,-0.60000002384185791,0.60000002384185791,0,0.60000002384185791,0,-1,0,0.20000000298023224,0.57999998331069946,0.33000001311302185
311,-0.60000002384185791,0,-0.60000002384185791,0.60000002384185791,0,0.60000002384185791,-0.60000002384185791,0,0.60000002384185791,0,-1,0,0.20000000298023224,0.57999998331069946,0.33000001311302185
312,-0.60000002384185791,1.2000000476837158,-0.60000002384185791,-0.60000002384185791,1.2000000476837158,0.60000002384185791,0.60000002384185791,1.2000000476837158,0.60000002384185791,0,1,0,0.20000000298023224,0.57999998331069946,0.33000001311302185
313,-0.60000002384185791,1.2000000476837158,-0.60000002384185791,0.60000002384185791,1.2000000476837158,0.60000002384185791,0.60000002384185791,1.2000000476837158,-0.60000002384185791,0,1,0,0.20000000298023224,0.57999998331069946,0.33000001311302185
314,-0.60000002384185791,0,-0.60000002384185791,-0.60000002384185791,1.2000000476837158,-0.60000002384185791,0.60000002384185791,1.2000000476837158,-0.60000002384185791,0,0,-1,0.30000001192092896,0.64999997615814209,0.40999999642372131
315,-0.60000002384185791,0,-0.60000002384185791,0.60000002384185791,1.2000000476837158,-0.60000002384185791,0.60000002384185791,0,-0.60000002384185791,0,0,-1,0.30000001192092896,0.64999997615814209,0.40999999642372131
316,-0.60000002384185791,0,0.60000002384185791,0.60000002384185791,0,0.60000002384185791,0.60000002384185791,1.2000000476837158,0.60000002384185791,0,0,1,0.30000001192092896,0.64999997615814209,0.40999999642372131
317,-0.60000002384185791,0,0.60000002384185791,0.60000002384185791,1.2000000476837158,0.60000002384185791,-0.60000002384185791,1.2000000476837158,0.60000002384185791,0,0,1,0.30000001192092896,0.64999997615814209,0.40999999642372131
318,-0.60000002384185791,0,-0.60000002384185791,-0.60000002384185791,0,0.60000002384185791,-0.60000002384185791,1.2000000476837158,0.60000002384185791,-1,0,0,0.30000001192092896,0.64999997615814209,0.40999999642372131
319,-0.60000002384185791,0,-0.60000002384185791,-0.60000002384185791,1.2000000476837158,0.60000002384185791,-0.60000002384185791,1.2000000476837158,-0.60000002384185791,-1,0,0,0.30000001192092896,0.64999997615814209,0.40999999642372131
320,0.60000002384185791,0,-0.60000002384185791,0.60000002384185791,1.2000000476837158,-0.60000002384185791,0.60000002384185791,1.2000000476837158,0.60000002384185791,1,0,0,0.30000001192092896,0.64999997615814209,0.40999999642372131
321,0.60000002384185791,0,-0.60000002384185791,0.60000002384185791,1.2000000476837158,0.60000002384185791,0.60000002384185791,0,0.60000002384185791,1,0,0,0.30000001192092896,0.64999997615814209,0.40999999642372131
322,-0.60000002384185791,0,-0.60000002384185791,0.60000002384185791,0,-0.60000002384185791,0.60000002384185791,0,0.60000002384185791,0,-1,0,0.30000001192092896,0.64999997615814209,0.40999999642372131
323,-0.60000002384185791,0,-0.60000002384185791,0.60000002384185791,0,0.60000002384185791,-0.60000002384185791,0,0.60000002384185791,0,-1,0,0.30000001192092896,0.64999997615814209,0.40999999642372131
324,-0.60000002384185791,1.2000000476837158,-0.60000002384185791,-0.60000002384185791,1.2000000476837158,0.60000002384185791,0.60000002384185791,1.2000000476837158,0.60000002384185791,0,1,0,0.30000001192092896,0.64999997615814209,0.40999999642372131
325,-0.60000002384185791,1.2000000476837158,-0.60000002384185791,0.60000002384185791,1.2000000476837158,0.60000002384185791,0.60000002384185791,1.2000000476837158,-0.60000002384185791,0,1,0,0.30000001192092896,0.64999997615814209,0.40999999642372131
326,-0.60000002384185791,0,-0.60000002384185791,-0.60000002384185791,1.2000000476837158,-0.60000002384185791,0.60000002384185791,1.2000000476837158,-0.60000002384185791,0,0,-1,0.40000000596046448,0.72000002861022949,0.49000000953674316
327,-0.60000002384185791,0,-0.60000002384185791,0.60000002384185791,1.2000000476837158,-0.60000002384185791,0.60000002384185791,0,-0.60000002384185791,0,0,-1,0.40000000596046448,0.72000002861022949,0.49000000953674316
328,-0.60000002384185791,0,0.60000002384185791,0.60000002384185791,0,0.60000002384185791,0.60000002384185791,1.2000000476837158,0.60000002384185791,0,0,1,0.40000000596046448,0.72000002861022949,0.49000000953674316
329,-0.60000002384185791,0,0.60000002384185791,0.60000002384185791,1.2000000476837158,0.60000002384185791,-0.60000002384185791,1.2000000476837158,0.60000002384185791,0,0,1,0.40000000596046448,0.72000002861022949,0.49000000953674316
330,-0.60000002384185791,0,-0.60000002384185791,-0.60000002384185791,0,0.60000002384185791,-0.60000002384185791,1.2000000476837158,0.60000002384185791,-1,0,0,0.40000000596046448,0.72000002861022949,0.49000000953674316
331,-0.60000002384185791,0,-0.60000002384185791,-0.60000002384185791,1.2000000476837158,0.60000002384185791,-0.60000002384185791,1.2000000476837158,-0.60000002384185791,-1,0,0,0.40000000596046448,0.72000002861022949,0.49000000953674316
332,0.60000002384185791,0,-0.60000002384185791,0.60000002384185791,1.2000000476837158,-0.60000002384185791,0.60000002384185791,1.2000000476837158,0.60000002384185791,1,0,0,0.40000000596046448,0.72000002861022949,0.49000000953674316
333,0.60000002384185791,0,-0.60000002384185791,0.60000002384185791,1.2000000476837158,0.60000002384185791,0.60000002384185791,0,0.60000002384185791,1,0,0,0.40000000596046448,0.72000002861022949,0.49000000953674316
334,-0.60000002384185791,0,-0.60000002384185791,0.60000002384185791,0,-0.60000002384185791,0.60000002384185791,0,0.60000002384185791,0,-1,0,0.40000000596046448,0.72000002861022949,0.49000000953674316
335,-0.60000002384185791,0,-0.60000002384185791,0.60000002384185791,0,0.60000002384185791,-0.60000002384185791,0,0.60000002384185791,0,-1,0,0.40000000596046448,0.72000002861022949,0.49000000953674316
336,-0.60000002384185791,1.2000000476837158,-0.60000002384185791,-0.60000002384185791,1.2000000476837158,0.60000002384185791,0.60000002384185791,1.2000000476837158,0.60000002384185791,0,1,0,0.40000000596046448,0.72000002861022949,0.49000000953674316
337,-0.60000002384185791,1.2000000476837158,-0.60000002384185791,0.60000002384185791,1.2000000476837158,0.60000002384185791,0.60000002384185791,1.2000000476837158,-0.60000002384185791,0,1,0,0.40000000596046448,0.72000002861022949,0.49000000953674316
338,-0.60000002384185791,0,-0.60000002384185791,-0.60000002384185791,1.2000000476837158,-0.60000002384185791,0.60000002384185791,1.2000000476837158,-0.60000002384185791,0,0,-1,0.5,0.30000001192092896,0.56999999284744263
339,-0.60000002384185791,0,-0.60000002384185791,0.60000002384185791,1.2000000476837158,-0.60000002384185791,0.60000002384185791,0,-0.60000002384185791,0,0,-1,0.5,0.30000001192092896,0.56999999284744263
340,-0.60000002384185791,0,0.60000002384185791,0.60000002384185791,0,0.60000002384185791,0.60000002384185791,1.2000000476837158,0.60000002384185791,0,0,1,0.5,0.30000001192092896,0.56999999284744263
341,-0.60000002384185791,0,0.60000002384185791,0.60000002384185791,1.2000000476837158,0.60000002384185791,-0.60000002384185791,1.2000000476837158,0.60000002384185791,0,0,1,0.5,0.30000001192092896,0.56999999284744263
342,-0.60000002384185791,0,-0.60000002384185791,-0.60000002384185791,0,0.60000002384185791,-0.60000002384185791,1.2000000476837158,0.60000002384185791,-1,0,0,0.5,0.30000001192092896,0.56999999284744263
343,-0.60000002384185791,0,-0.60000002384185791,-0.60000002384185791,1.2000000476837158,0.60000002384185791,-0.60000002384185791,1.2000000476837158,-0.60000002384185791,-1,0,0,0.5,0.30000001192092896,0.56999999284744263
344,0.60000002384185791,0,-0.60000002384185791,0.60000002384185791,1.2000000476837158,-0.60000002384185791,0.60000002384185791,1.2000000476837158,0.60000002384185791,1,0,0,0.5,0.30000001192092896,0.56999999284744263
345,0.60000002384185791,0,-0.60000002384185791,0.60000002384185791,1.2000000476837158,0.60000002384185791,0.60000002384185791,0,0.60000002384185791,1,0,0,0.5,0.30000001192092896,0.56999999284744263
346,-0.60000002384185791,0,-0.60000002384185791,0.60000002384185791,0,-0.60000002384185791,0.60000002384185791,0,0.60000002384185791,0,-1,0,0.5,0.30000001192092896,0.56999999284744263
347,-0.60000002384185791,0,-0.60000002384185791,0.60000002384185791,0,0.60000002384185791,-0.60000002384185791,0,0.60000002384185791,0,-1,0,0.5,0.30000001192092896,0.56999999284744263
348,-0.60000002384185791,1.2000000476837158,-0.60000002384185791,-0.60000002384185791,1.2000000476837158,0.60000002384185791,0.60000002384185791,1.2000000476837158,0.60000002384185791,0,1,0,0.5,0.30000001192092896,0.56999999284744263
349,-0.60000002384185791,1.2000000476837158,-0.60000002384185791,0.60000002384185791,1.2000000476837158,0.60000002384185791,0.60000002384185791,1.2000000476837158,-0.60000002384185791,0,1,0,0.5,0.30000001192092896,0.56999999284744263
350,-0.60000002384185791,0,-0.60000002384185791,-0.60000002384185791,1.2000000476837158,-0.60000002384185791,0.60000002384185791,1.2000000476837158,-0.60000002384185791,0,0,-1,0.60000002384185791,0.37000000476837158,0.64999997615814209
351,-0.60000002384185791,0,-0.60000002384185791,0.60000002384185791,1.2000000476837158,-0.60000002384185791,0.60000002384185791,0,-0.60000002384185791,0,0,-1,0.60000002384185791,0.37000000476837158,0.64999997615814209
352,-0.60000002384185791,0,0.60000002384185791,0.60000002384185791,0,0.60000002384185791,0.60000002384185791,1.2000000476837158,0.60000002384185791,0,0,1,0.60000002384185791,0.37000000476837158,0.64999997615814209
353,-0.60000002384185791,0,0.60000002384185791,0.60000002384185791,1.2000000476837158,0.60000002384185791,-0.60000002384185791,1.2000000476837158,0.60000002384185791,0,0,1,0.60000002384185791,0.37000000476837158,0.64999997615814209
354,-0.60000002384185791,0,-0.60000002384185791,-0.60000002384185791,0,0.60000002384185791,-0.60000002384185791,1.2000000476837158,0.60000002384185791,-1,0,0,0.60000002384185791,0.37000000476837158,0.64999997615814209
355,-0.60000002384185791,0,-0.60000002384185791,-0.60000002384185791,1.2000000476837158,0.60000002384185791,-0.60000002384185791,1.2000000476837158,-0.60000002384185791,-1,0,0,0.60000002384185791,0.37000000476837158,0.64999997615814209
356,0.60000002384185791,0,-0.60000002384185791,0.60000002384185791,1.2000000476837158,-0.60000002384185791,0.60000002384185791,1.2000000476837158,0.60000002384185791,1,0,0,0.60000002384185791,0.37000000476837158,0.64999997615814209
357,0.60000002384185791,0,-0.60000002384185791,0.60000002384185791,1.2000000476837158,0.60000002384185791,0.60000002384185791,0,0.60000002384185791,1,0,0,0.60000002384185791,0.37000000476837158,0.64999997615814209
358,-0.60000002384185791,0,-0.60000002384185791,0.60000002384185791,0,-0.60000002384185791,0.60000002384185791,0,0.60000002384185791,0,-1,0,0.60000002384185791,0.37000000476837158,0.64999997615814209
359,-0.60000002384185791,0,-0.60000002384185791,0.60000002384185791,0,0.60000002384185791,-0.60000002384185791,0,0.60000002384185791,0,-1,0,0.60000002384185791,0.37000000476837158,0.64999997615814209
360,-0.60000002384185791,1.2000000476837158,-0.60000002384185791,-0.60000002384185791,1.2000000476837158,0.60000002384185791,0.60000002384185791,1.2000000476837158,0.60000002384185791,0,1,0,0.60000002384185791,0.37000000476837158,0.64999997615814209
361,-0.60000002384185791,1.2000000476837158,-0.60000002384185791,0.60000002384185791,1.2000000476837158,0.60000002384185791,0.60000002384185791,1.2000000476837158,-0.60000002384185791,0,1,0,0.60000002384185791,0.37000000476837158,0.64999997615814209
362,-0.60000002384185791,0,-0.60000002384185791,-0.60000002384185791,1.2000000476837158,-0.60000002384185791,0.60000002384185791,1.2000000476837158,-0.60000002384185791,0,0,-1,0.20000000298023224,0.43999999761581421,0.25
363,-0.60000002384185791,0,-0.60000002384185791,0.60000002384185791,1.2000000476837158,-0.60000002384185791,0.60000002384185791,0,-0.60000002384185791,0,0,-1,0.20000000298023224,0.43999999761581421,0.25
364,-0.60000002384185791,0,0.60000002384185791,0.60000002384185791,0,0.60000002384185791,0.60000002384185791,1.2000000476837158,0.60000002384185791,0,0,1,0.20000000298023224,0.43999999761581421,0.25
365,-0.60000002384185791,0,0.60000002384185791,0.60000002384185791,1.2000000476837158,0.60000002384185791,-0.60000002384185791,1.2000000476837158,0.60000002384185791,0,0,1,0.20000000298023224,0.43999999761581421,0.25
366,-0.60000002384185791,0,-0.60000002384185791,-0.60000002384185791,0,0.60000002384185791,-0.60000002384185791,1.2000000476837158,0.60000002384185791,-1,0,0,0.20000000298023224,0.43999999761581421,0.25
367,-0.60000002384185791,0,-0.60000002384185791,-0.60000002384185791,1.2000000476837158,0.60000002384185791,-0.60000002384185791,1.2000000476837158,-0.60000002384185791,-1,0,0,0.20000000298023224,0.43999999761581421,0.25
368,0.60000002384185791,0,-0.60000002384185791,0.60000002384185791,1.2000000476837158,-0.60000002384185791,0.60000002384185791,1.2000000476837158,0.60000002384185791,1,0,0,0.20000000298023224,0.43999999761581421,0.25
369,0.60000002384185791,0,-0.60000002384185791,0.60000002384185791,1.2000000476837158,0.60000002384185791,0.60000002384185791,0,0.60000002384185791,1,0,0,0.20000000298023224,0.43999999761581421,0.25
370,-0.60000002384185791,0,-0.60000002384185791,0.60000002384185791,0,-0.60000002384185791,0.60000002384185791,0,0.60000002384185791,0,-1,0,0.20000000298023224,0.43999999761581421,0.25
371,-0.60000002384185791,0,-0.60000002384185791,0.60000002384185791,0,0.60000002384185791,-0.60000002384185791,0,0.60000002384185791,0,-1,0,0.20000000298023224,0.43999999761581421,0.25
372,-0.60000002384185791,1.2000000476837158,-0.60000002384185791,-0.60000002384185791,1.2000000476837158,0.60000002384185791,0.60000002384185791,1.2000000476837158,0.60000002384185791,0,1,0,0.20000000298023224,0.43999999761581421,0.25
373,-0.60000002384185791,1.2000000476837158,-0.60000002384185791,0.60000002384185791,1.2000000476837158,0.60000002384185791,0.60000002384185791,1.2000000476837158,-0.60000002384185791,0,1,0,0.20000000298023224,0.43999999761581421,0.25
374,-0.60000002384185791,0,-0.60000002384185791,-0.60000002384185791,1.2000000476837158,-0.60000002384185791,0.60000002384185791,1.2000000476837158,-0.60000002384185791,0,0,-1,0.30000001192092896,0.50999999046325684,0.33000001311302185
375,-0.60000002384185791,0,-0.60000002384185791,0.60000002384185791,1.2000000476837158,-0.60000002384185791,0.60000002384185791,0,-0.60000002384185791,0,0,-1,0.30000001192092896,0.50999999046325684,0.33000001311302185
376,-0.60000002384185791,0,0.60000002384185791,0.60000002384185791,0,0.60000002384185791,0.60000002384185791,1.2000000476837158,0.60000002384185791,0,0,1,0.30000001192092896,0.50999999046325684,0.33000001311302185
377,-0.60000002384185791,0,0.60000002384185791,0.60000002384185791,1.2000000476837158,0.60000002384185791,-0.60000002384185791,1.2000000476837158,0.60000002384185791,0,0,1,0.30000001192092896,0.50999999046325684,0.33000001311302185
378,-0.60000002384185791,0,-0.60000002384185791,-0.60000002384185791,0,0.60000002384185791,-0.60000002384185791,1.2000000476837158,0.60000002384185791,-1,0,0,0.30000001192092896,0.50999999046325684,0.33000001311302185
379,-0.60000002384185791,0,-0.60000002384185791,-0.60000002384185791,1.2000000476837158,0.60000002384185791,-0.60000002384185791,1.2000000476837158,-0.60000002384185791,-1,0,0,0.30000001192092896,0.50999999046325684,0.33000001311302185
380,0.60000002384185791,0,-0.60000002384185791,0.60000002384185791,1.2000000476837158,-0.60000002384185791,0.60000002384185791,1.2000000476837158,0.60000002384185791,1,0,0,0.30000001192092896,0.50999999046325684,0.33000001311302185
381,0.60000002384185791,0,-0.60000002384185791,0.60000002384185791,1.2000000476837158,0.60000002384185791,0.60000002384185791,0,0.60000002384185791,1,0,0,0.30000001192092896,0.50999999046325684,0.33000001311302185
382,-0.60000002384185791,0,-0.60000002384185791,0.60000002384185791,0,-0.60000002384185791,0.60000002384185791,0,0.60000002384185791,0,-1,0,0.30000001192092896,0.50999999046325684,0.33000001311302185
383,-0.60000002384185791,0,-0.60000002384185791,0.60000002384185791,0,0.60000002384185791,-0.60000002384185791,0,0.60000002384185791,0,-1,0,0.30000001192092896,0.50999999046325684,0.33000001311302185
384,-0.60000002384185791,1.2000000476837158,-0.60000002384185791,-0.60000002384185791,1.2000000476837158,0.60000002384185791,0.60000002384185791,1.2000000476837158,0.60000002384185791,0,1,0,0.30000001192092896,0.50999999046325684,0.33000001311302185
385,-0.60000002384185791,1.2000000476837158,-0.60000002384185791,0.60000002384185791,1.2000000476837158,0.60000002384185791,0.60000002384185791,1.2000000476837158,-0.60000002384185791,0,1,0,0.30000001192092896,0.50999999046325684,0.33000001311302185
386,-0.60000002384185791,0,-0.60000002384185791,-0.60000002384185791,1.2000000476837158,-0.60000002384185791,0.60000002384185791,1.2000000476837158,-0.60000002384185791,0,0,-1,0.40000000596046448,0.57999998331069946,0.40999999642372131
387,-0.60000002384185791,0,-0.60000002384185791,0.60000002384185791,1.2000000476837158,-0.60000002384185791,0.60000002384185791,0,-0.60000002384185791,0,0,-1,0.40000000596046448,0.57999998331069946,0.40999999642372131
388,-0.60000002384185791,0,0.60000002384185791,0.60000002384185791,0,0.60000002384185791,0.60000002384185791,1.2000000476837158,0.60000002384185791,0,0,1,0.40000000596046448,0.57999998331069946,0.40999999642372131
389,-0.60000002384185791,0,0.60000002384185791,0.60000002384185791,1.2000000476837158,0.60000002384185791,-0.60000002384185791,1.2000000476837158,0.60000002384185791,0,0,1,0.40000000596046448,0.57999998331069946,0.40999999642372131
390,-0.60000002384185791,0,-0.60000002384185791,-0.60000002384185791,0,0.60000002384185791,-0.60000002384185791,1.2000000476837158,0.60000002384185791,-1,0,0,0.40000000596046448,0.57999998331069946,0.40999999642372131
391,-0.60000002384185791,0,-0.60000002384185791,-0.60000002384185791,1.2000000476837158,0.60000002384185791,-0.60000002384185791,1.2000000476837158,-0.60000002384185791,-1,0,0,0.40000000596046448,0.57999998331069946,0.40999999642372131
392,0.60000002384185791,0,-0.60000002384185791,0.60000002384185791,1.2000000476837158,-0.60000002384185791,0.60000002384185791,1.2000000476837158,0.60000002384185791,1,0,0,0.40000000596046448,0.57999998331069946,0.40999999642372131
393,0.60000002384185791,0,-0.60000002384185791,0.60000002384185791,1.2000000476837158,0.60000002384185791,0.60000002384185791,0,0.60000002384185791,1,0,0,0.40000000596046448,0.57999998331069946,0.40999999642372131
394,-0.60000002384185791,0,-0.60000002384185791,0.60000002384185791,0,-0.60000002384185791,0.60000002384185791,0,0.60000002384185791,0,-1,0,0.40000000596046448,0.57999998331069946,0.40999999642372131
395,-0.60000002384185791,0,-0.60000002384185791,0.60000002384185791,0,0.60000002384185791,-0.60000002384185791,0,0.60000002384185791,0,-1,0,0.40000000596046448,0.57999998331069946,0.40999999642372131
396,-0.60000002384185791,1.2000000476837158,-0.60000002384185791,-0.60000002384185791,1.2000000476837158,0.60000002384185791,0.60000002384185791,1.2000000476837158,0.60000002384185791,0,1,0,0.40000000596046448,0.57999998331069946,0.40999999642372131
397,-0.60000002384185791,1.2000000476837158,-0.60000002384185791,0.60000002384185791,1.2000000476837158,0.60000002384185791,0.60000002384185791,1.2000000476837158,-0.60000002384185791,0,1,0,0.40000000596046448,0.57999998331069946,0.40999999642372131
398,-0.60000002384185791,0,-0.60000002384185791,-0.60000002384185791,1.2000000476837158,-0.60000002384185791,0.60000002384185791,1.2000000476837158,-0.60000002384185791,0,0,-1,0.5,0.64999997615814209,0.49000000953674316
399,-0.60000002384185791,0,-0.60000002384185791,0.60000002384185791,1.2000000476837158,-0.60000002384185791,0.60000002384185791,0,-0.60000002384185791,0,0,-1,0.5,0.64999997615814209,0.49000000953674316
400,-0.60000002384185791,0,0.60000002384185791,0.60000002384185791,0,0.60000002384185791,0.60000002384185791,1.2000000476837158,0.60000002384185791,0,0,1,0.5,0.64999997615814209,0.49000000953674316
401,-0.60000002384185791,0,0.60000002384185791,0.60000002384185791,1.2000000476837158,0.60000002384185791,-0.60000002384185791,1.2000000476837158,0.60000002384185791,0,0,1,0.5,0.64999997615814209,0.49000000953674316
402,-0.60000002384185791,0,-0.60000002384185791,-0.60000002384185791,0,0.60000002384185791,-0.60000002384185791,1.2000000476837158,0.60000002384185791,-1,0,0,0.5,0.64999997615814209,0.49000000953674316
403,-0.60000002384185791,0,-0.60000002384185791,-0.60000002384185791,1.2000000476837158,0.60000002384185791,-0.60000002384185791,1.2000000476837158,-0.60000002384185791,-1,0,0,0.5,0.64999997615814209,0.49000000953674316
404,0.60000002384185791,0,-0.60000002384185791,0.60000002384185791,1.2000000476837158,-0.60000002384185791,0.60000002384185791,1.2000000476837158,0.60000002384185791,1,0,0,0.5,0.64999997615814209,0.49000000953674316
405,0.60000002384185791,0,-0.60000002384185791,0.60000002384185791,1.2000000476837158,0.60000002384185791,0.60000002384185791,0,0.60000002384185791,1,0,0,0.5,0.64999997615814209,0.49000000953674316
406,-0.60000002384185791,0,-0.60000002384185791,0.60000002384185791,0,-0.60000002384185791,0.60000002384185791,0,0.60000002384185791,0,-1,0,0.5,0.64999997615814209,0.49000000953674316
407,-0.60000002384185791,0,-0.60000002384185791,0.60000002384185791,0,0.60000002384185791,-0.60000002384185791,0,0.60000002384185791,0,-1,0,0.5,0.64999997615814209,0.49000000953674316
408,-0.60000002384185791,1.2000000476837158,-0.60000002384185791,-0.60000002384185791,1.2000000476837158,0.60000002384185791,0.60000002384185791,1.2000000476837158,0.60000002384185791,0,1,0,0.5,0.64999997615814209,0.49000000953674316
409,-0.60000002384185791,1.2000000476837158,-0.60000002384185791,0.60000002384185791,1.2000000476837158,0.60000002384185791,0.60000002384185791,1.2000000476837158,-0.60000002384185791,0,1,0,0.5,0.64999997615814209,0.49000000953674316
410,-0.60000002384185791,0,-0.60000002384185791,-0.60000002384185791,1.2000000476837158,-0.60000002384185791,0.60000002384185791,1.2000000476837158,-0.60000002384185791,0,0,-1,0.60000002384185791,0.72000002861022949,0.56999999284744263
411,-0.60000002384185791,0,-0.60000002384185791,0.60000002384185791,1.2000000476837158,-0.60000002384185791,0.60000002384185791,0,-0.60000002384185791,0,0,-1,0.60000002384185791,0.72000002861022949,0.56999999284744263
412,-0.60000002384185791,0,0.60000002384185791,0.60000002384185791,0,0.60000002384185791,0.60000002384185791,1.2000000476837158,0.60000002384185791,0,0,1,0.60000002384185791,0.72000002861022949,0.56999999284744263
413,-0.60000002384185791,0,0.60000002384185791,0.60000002384185791,1.2000000476837158,0.60000002384185791,-0.60000002384185791,1.2000000476837158,0.60000002384185791,0,0,1,0.60000002384185791,0.72000002861022949,0.56999999284744263
414,-0.60000002384185791,0,-0.60000002384185791,-0.60000002384185791,0,0.60000002384185791,-0.60000002384185791,1.2000000476837158,0.60000002384185791,-1,0,0,0.60000002384185791,0.72000002861022949,0.56999999284744263
415,-0.60000002384185791,0,-0.60000002384185791,-0.60000002384185791,1.2000000476837158,0.60000002384185791,-0.60000002384185791,1.2000000476837158,-0.60000002384185791,-1,0,0,0.60000002384185791,0.72000002861022949,0.56999999284744263
416,0.60000002384185791,0,-0.60000002384185791,0.60000002384185791,1.2000000476837158,-0.60000002384185791,0.60000002384185791,1.2000000476837158,0.60000002384185791,1,0,0,0.60000002384185791,0.72000002861022949,0.56999999284744263
417,0.60000002384185791,0,-0.60000002384185791,0.60000002384185791,1.2000000476837158,0.60000002384185791,0.60000002384185791,0,0.60000002384185791,1,0,0,0.60000002384185791,0.72000002861022949,0.56999999284744263
418,-0.60000002384185791,0,-0.60000002384185791,0.60000002384185791,0,-0.60000002384185791,0.60000002384185791,0,0.60000002384185791,0,-1,0,0.60000002384185791,0.72000002861022949,0.56999999284744263
419,-0.60000002384185791,0,-0.60000002384185791,0.60000002384185791,0,0.60000002384185791,-0.60000002384185791,0,0.60000002384185791,0,-1,0,0.60000002384185791,0.72000002861022949,0.56999999284744263
420,-0.60000002384185791,1.2000000476837158,-0.60000002384185791,-0.60000002384185791,1.2000000476837158,0.60000002384185791,0.60000002384185791,1.2000000476837158,0.60000002384185791,0,1,0,0.60000002384185791,0.72000002861022949,0.56999999284744263
421,-0.60000002384185791,1.2000000476837158,-0.60000002384185791,0.60000002384185791,1.2000000476837158,0.60000002384185791,0.60000002384185791,1.2000000476837158,-0.60000002384185791,0,1,0,0.60000002384185791,0.72000002861022949,0.56999999284744263
422,-0.60000002384185791,0,-0.60000002384185791,-0.60000002384185791,1.2000000476837158,-0.60000002384185791,0.60000002384185791,1.2000000476837158,-0.60000002384185791,0,0,-1,0.20000000298023224,0.30000001192092896,0.64999997615814209
423,-0.60000002384185791,0,-0.60000002384185791,0.60000002384185791,1.2000000476837158,-0.60000002384185791,0.60000002384185791,0,-0.60000002384185791,0,0,-1,0.20000000298023224,0.30000001192092896,0.64999997615814209
424,-0.60000002384185791,0,0.60000002384185791,0.60000002384185791,0,0.60000002384185791,0.60000002384185791,1.2000000476837158,0.60000002384185791,0,0,1,0.20000000298023224,0.30000001192092896,0.64999997615814209
425,-0.60000002384185791,0,0.60000002384185791,0.60000002384185791,1.2000000476837158,0.60000002384185791,-0.60000002384185791,1.2000000476837158,0.60000002384185791,0,0,1,0.20000000298023224,0.30000001192092896,0.64999997615814209
426,-0.60000002384185791,0,-0.60000002384185791,-0.60000002384185791,0,0.60000002384185791,-0.60000002384185791,1.2000000476837158,0.60000002384185791,-1,0,0,0.20000000298023224,0.30000001192092896,0.64999997615814209
427,-0.60000002384185791,0,-0.60000002384185791,-0.60000002384185791,1.2000000476837158,0.60000002384185791,-0.60000002384185791,1.2000000476837158,-0.60000002384185791,-1,0,0,0.20000000298023224,0.30000001192092896,0.64999997615814209
428,0.60000002384185791,0,-0.60000002384185791,0.60000002384185791,1.2000000476837158,-0.60000002384185791,0.60000002384185791,1.2000000476837158,0.60000002384185791,1,0,0,0.20000000298023224,0.30000001192092896,0.64999997615814209
429,0.60000002384185791,0,-0.60000002384185791,0.60000002384185791,1.2000000476837158,0.60000002384185791,0.60000002384185791,0,0.60000002384185791,1,0,0,0.20000000298023224,0.30000001192092896,0.64999997615814209
430,-0.60000002384185791,0,-0.60000002384185791,0.60000002384185791,0,-0.60000002384185791,0.60000002384185791,0,0.60000002384185791,0,-1,0,0.20000000298023224,0.30000001192092896,0.64999997615814209
431,-0.60000002384185791,0,-0.60000002384185791,0.60000002384185791,0,0.60000002384185791,-0.60000002384185791,0,0.60000002384185791,0,-1,0,0.20000000298023224,0.30000001192092896,0.64999997615814209
432,-0.60000002384185791,1.2000000476837158,-0.60000002384185791,-0.60000002384185791,1.2000000476837158,0.60000002384185791,0.60000002384185791,1.2000000476837158,0.60000002384185791,0,1,0,0.20000000298023224,0.30000001192092896,0.64999997615814209
433,-0.60000002384185791,1.2000000476837158,-0.60000002384185791,0.60000002384185791,1.2000000476837158,0.60000002384185791,0.60000002384185791,1.2000000476837158,-0.60000002384185791,0,1,0,0.20000000298023224,0.30000001192092896,0.64999997615814209
434,-0.60000002384185791,0,-0.60000002384185791,-0.60000002384185791,1.2000000476837158,-0.60000002384185791,0.60000002384185791,1.2000000476837158,-0.60000002384185791,0,0,-1,0.30000001192092896,0.37000000476837158,0.25
435,-0.60000002384185791,0,-0.60000002384185791,0.60000002384185791,1.2000000476837158,-0.60000002384185791,0.60000002384185791,0,-0.60000002384185791,0,0,-1,0.30000001192092896,0.37000000476837158,0.25
436,-0.60000002384185791,0,0.60000002384185791,0.60000002384185791,0,0.60000002384185791,0.60000002384185791,1.2000000476837158,0.60000002384185791,0,0,1,0.30000001192092896,0.37000000476837158,0.25
437,-0.60000002384185791,0,0.60000002384185791,0.60000002384185791,1.2000000476837158,0.60000002384185791,-0.60000002384185791,1.2000000476837158,0.60000002384185791,0,0,1,0.30000001192092896,0.37000000476837158,0.25
438,-0.60000002384185791,0,-0.60000002384185791,-0.60000002384185791,0,0.60000002384185791,-0.60000002384185791,1.2000000476837158,0.60000002384185791,-1,0,0,0.30000001192092896,0.37000000476837158,0.25
439,-0.60000002384185791,0,-0.60000002384185791,-0.60000002384185791,1.2000000476837158,0.60000002384185791,-0.60000002384185791,1.2000000476837158,-0.60000002384185791,-1,0,0,0.30000001192092896,0.37000000476837158,0.25
440,0.60000002384185791,0,-0.60000002384185791,0.60000002384185791,1.2000000476837158,-0.60000002384185791,0.60000002384185791,1.2000000476837158,0.60000002384185791,1,0,0,0.30000001192092896,0.37000000476837158,0.25
441,0.60000002384185791,0,-0.60000002384185791,0.60000002384185791,1.2000000476837158,0.60000002384185791,0.60000002384185791,0,0.60000002384185791,1,0,0,0.30000001192092896,0.37000000476837158,0.25
442,-0.60000002384185791,0,-0.60000002384185791,0.60000002384185791,0,-0.60000002384185791,0.60000002384185791,0,0.60000002384185791,0,-1,0,0.30000001192092896,0.37000000476837158,0.25
443,-0.60000002384185791,0,-0.60000002384185791,0.60000002384185791,0,0.60000002384185791,-0.60000002384185791,0,0.60000002384185791,0,-1,0,0.30000001192092896,0.37000000476837158,0.25
444,-0.60000002384185791,1.2000000476837158,-0.60000002384185791,-0.60000002384185791,1.2000000476837158,0.60000002384185791,0.60000002384185791,1.2000000476837158,0.60000002384185791,0,1,0,0.30000001192092896,0.37000000476837158,0.25
445,-0.60000002384185791,1.2000000476837158,-0.60000002384185791,0.60000002384185791,1.2000000476837158,0.60000002384185791,0.60000002384185791,1.2000000476837158,-0.60000002384185791,0,1,0,0.30000001192092896,0.37000000476837158,0.25
446,-0.60000002384185791,0,-0.60000002384185791,-0.60000002384185791,1.2000000476837158,-0.60000002384185791,0.60000002384185791,1.2000000476837158,-0.60000002384185791,0,0,-1,0.40000000596046448,0.43999999761581421,0.33000001311302185
447,-0.60000002384185791,0,-0.60000002384185791,0.60000002384185791,1.2000000476837158,-0.60000002384185791,0.60000002384185791,0,-0.60000002384185791,0,0,-1,0.40000000596046448,0.43999999761581421,0.33000001311302185
448,-0.60000002384185791,0,0.60000002384185791,0.60000002384185791,0,0.60000002384185791,0.60000002384185791,1.2000000476837158,0.60000002384185791,0,0,1,0.40000000596046448,0.43999999761581421,0.33000001311302185
449,-0.60000002384185791,0,0.60000002384185791,0.60000002384185791,1.2000000476837158,0.60000002384185791,-0.60000002384185791,1.2000000476837158,0.60000002384185791,0,0,1,0.40000000596046448,0.43999999761581421,0.33000001311302185
450,-0.60000002384185791,0,-0.60000002384185791,-0.60000002384185791,0,0.60000002384185791,-0.60000002384185791,1.2000000476837158,0.60000002384185791,-1,0,0,0.40000000596046448,0.43999999761581421,0.33000001311302185
451,-0.60000002384185791,0,-0.60000002384185791,-0.60000002384185791,1.2000000476837158,0.60000002384185791,-0.60000002384185791,1.2000000476837158,-0.60000002384185791,-1,0,0,0.40000000596046448,0.43999999761581421,0.33000001311302185
452,0.60000002384185791,0,-0.60000002384185791,0.60000002384185791,1.2000000476837158,-0.60000002384185791,0.60000002384185791,1.2000000476837158,0.60000002384185791,1,0,0,0.40000000596046448,0.43999999761581421,0.33000001311302185
453,0.60000002384185791,0,-0.60000002384185791,0.60000002384185791,1.2000000476837158,0.60000002384185791,0.60000002384185791,0,0.60000002384185791,1,0,0,0.40000000596046448,0.43999999761581421,0.33000001311302185
454,-0.60000002384185791,0,-0.60000002384185791,0.60000002384185791,0,-0.60000002384185791,0.60000002384185791,0,0.60000002384185791,0,-1,0,0.40000000596046448,0.43999999761581421,0.33000001311302185
455,-0.60000002384185791,0,-0.60000002384185791,0.60000002384185791,0,0.60000002384185791,-0.60000002384185791,0,0.60000002384185791,0,-1,0,0.40000000596046448,0.43999999761581421,0.33000001311302185
456,-0.60000002384185791,1.2000000476837158,-0.60000002384185791,-0.60000002384185791,1.2000000476837158,0.60000002384185791,0.60000002384185791,1.2000000476837158,0.60000002384185791,0,1,0,0.40000000596046448,0.43999999761581421,0.33000001311302185
457,-0.60000002384185791,1.2000000476837158,-0.60000002384185791,0.60000002384185791,1.2000000476837158,0.60000002384185791,0.60000002384185791,1.2000000476837158,-0.60000002384185791,0,1,0,0.40000000596046448,0.43999999761581421,0.33000001311302185
458,-0.60000002384185791,0,-0.60000002384185791,-0.60000002384185791,1.2000000476837158,-0.60000002384185791,0.60000002384185791,1.2000000476837158,-0.60000002384185791,0,0,-1,0.5,0.50999999046325684,0.40999999642372131
459,-0.60000002384185791,0,-0.60000002384185791,0.60000002384185791,1.2000000476837158,-0.60000002384185791,0.60000002384185791,0,-0.60000002384185791,0,0,-1,0.5,0.50999999046325684,0.40999999642372131
460,-0.60000002384185791,0,0.60000002384185791,0.60000002384185791,0,0.60000002384185791,0.60000002384185791,1.2000000476837158,0.60000002384185791,0,0,1,0.5,0.50999999046325684,0.40999999642372131
461,-0.60000002384185791,0,0.60000002384185791,0.60000002384185791,1.2000000476837158,0.60000002384185791,-0.60000002384185791,1.2000000476837158,0.60000002384185791,0,0,1,0.5,0.50999999046325684,0.40999999642372131
462,-0.60000002384185791,0,-0.60000002384185791,-0.60000002384185791,0,0.60000002384185791,-0.60000002384185791,1.2000000476837158,0.60000002384185791,-1,0,0,0.5,0.50999999046325684,0.40999999642372131
463,-0.60000002384185791,0,-0.60000002384185791,-0.60000002384185791,1.2000000476837158,0.60000002384185791,-0.60000002384185791,1.2000000476837158,-0.60000002384185791,-1,0,0,0.5,0.50999999046325684,0.40999999642372131
464,0.60000002384185791,0,-0.60000002384185791,0.60000002384185791,1.2000000476837158,-0.60000002384185791,0.60000002384185791,1.2000000476837158,0.60000002384185791,1,0,0,0.5,0.50999999046325684,0.40999999642372131
465,0.60000002384185791,0,-0.60000002384185791,0.60000002384185791,1.2000000476837158,0.60000002384185791,0.60000002384185791,0,0.60000002384185791,1,0,0,0.5,0.50999999046325684,0.40999999642372131
466,-0.60000002384185791,0,-0.60000002384185791,0.60000002384185791,0,-0.60000002384185791,0.60000002384185791,0,0.60000002384185791,0,-1,0,0.5,0.50999999046325684,0.40999999642372131
467,-0.60000002384185791,0,-0.60000002384185791,0.60000002384185791,0,0.60000002384185791,-0.60000002384185791,0,0.60000002384185791,0,-1,0,0.5,0.50999999046325684,0.40999999642372131
468,-0.60000002384185791,1.2000000476837158,-0.60000002384185791,-0.60000002384185791,1.2000000476837158,0.60000002384185791,0.60000002384185791,1.2000000476837158,0.60000002384185791,0,1,0,0.5,0.50999999046325684,0.40999999642372131
469,-0.60000002384185791,1.2000000476837158,-0.60000002384185791,0.60000002384185791,1.2000000476837158,0.60000002384185791,0.60000002384185791,1.2000000476837158,-0.60000002384185791,0,1,0,0.5,0.50999999046325684,0.40999999642372131
470,-0.60000002384185791,0,-0.60000002384185791,-0.60000002384185791,1.2000000476837158,-0.60000002384185791,0.60000002384185791,1.2000000476837158,-0.60000002384185791,0,0,-1,0.60000002384185791,0.57999998331069946,0.49000000953674316
471,-0.60000002384185791,0,-0.60000002384185791,0.60000002384185791,1.2000000476837158,-0.60000002384185791,0.60000002384185791,0,-0.60000002384185791,0,0,-1,0.60000002384185791,0.57999998331069946,0.49000000953674316
472,-0.60000002384185791,0,0.60000002384185791,0.60000002384185791,0,0.60000002384185791,0.60000002384185791,1.2000000476837158,0.60000002384185791,0,0,1,0.60000002384185791,0.57999998331069946,0.49000000953674316
473,-0.60000002384185791,0,0.60000002384185791,0.60000002384185791,1.2000000476837158,0.60000002384185791,-0.60000002384185791,1.2000000476837158,0.60000002384185791,0,0,1,0.60000002384185791,0.57999998331069946,0.49000000953674316
474,-0.60000002384185791,0,-0.60000002384185791,-0.60000002384185791,0,0.60000002384185791,-0.60000002384185791,1.2000000476837158,0.60000002384185791,-1,0,0,0.60000002384185791,0.57999998331069946,0.49000000953674316
475,-0.60000002384185791,0,-0.60000002384185791,-0.60000002384185791,1.2000000476837158,0.60000002384185791,-0.60000002384185791,1.2000000476837158,-0.60000002384185791,-1,0,0,0.60000002384185791,0.57999998331069946,0.49000000953674316
476,0.60000002384185791,0,-0.60000002384185791,0.60000002384185791,1.2000000476837158,-0.60000002384185791,0.60000002384185791,1.2000000476837158,0.60000002384185791,1,0,0,0.60000002384185791,0.57999998331069946,0.49000000953674316
477,0.60000002384185791,0,-0.60000002384185791,0.60000002384185791,1.2000000476837158,0.60000002384185791,0.60000002384185791,0,0.60000002384185791,1,0,0,0.60000002384185791,0.57999998331069946,0.49000000953674316
478,-0.60000002384185791,0,-0.60000002384185791,0.60000002384185791,0,-0.60000002384185791,0.60000002384185791,0,0.60000002384185791,0,-1,0,0.60000002384185791,0.57999998331069946,0.49000000953674316
479,-0.60000002384185791,0,-0.60000002384185791,0.60000002384185791,0,0.60000002384185791,-0.60000002384185791,0,0.60000002384185791,0,-1,0,0.60000002384185791,0.57999998331069946,0.49000000953674316
480,-0.60000002384185791,1.2000000476837158,-0.60000002384185791,-0.60000002384185791,1.2000000476837158,0.60000002384185791,0.60000002384185791,1.2000000476837158,0.60000002384185791,0,1,0,0.60000002384185791,0.57999998331069946,0.49000000953674316
481,-0.60000002384185791,1.2000000476837158,-0.60000002384185791,0.60000002384185791,1.2000000476837158,0.60000002384185791,0.60000002384185791,1.2000000476837158,-0.60000002384185791,0,1,0,0.60000002384185791,0.57999998331069946,0.49000000953674316
482,-0.60000002384185791,0,-0.60000002384185791,-0.60000002384185791,1.2000000476837158,-0.60000002384185791,0.60000002384185791,1.2000000476837158,-0.60000002384185791,0,0,-1,0.20000000298023224,0.64999997615814209,0.56999999284744263
483,-0.60000002384185791,0,-0.60000002384185791,0.60000002384185791,1.2000000476837158,-0.60000002384185791,0.60000002384185791,0,-0.60000002384185791,0,0,-1,0.20000000298023224,0.64999997615814209,0.56999999284744263
484,-0.60000002384185791,0,0.60000002384185791,0.60000002384185791,0,0.60000002384185791,0.60000002384185791,1.2000000476837158,0.60000002384185791,0,0,1,0.20000000298023224,0.64999997615814209,0.56999999284744263
485,-0.60000002384185791,0,0.60000002384185791,0.60000002384185791,1.2000000476837158,0.60000002384185791,-0.60000002384185791,1.2000000476837158,0.60000002384185791,0,0,1,0.20000000298023224,0.64999997615814209,0.56999999284744263
486,-0.60000002384185791,0,-0.60000002384185791,-0.60000002384185791,0,0.60000002384185791,-0.60000002384185791,1.2000000476837158,0.60000002384185791,-1,0,0,0.20000000298023224,0.64999997615814209,0.56999999284744263
487,-0.60000002384185791,0,-0.60000002384185791,-0.60000002384185791,1.2000000476837158,0.60000002384185791,-0.60000002384185791,1.2000000476837158,-0.60000002384185791,-1,0,0,0.20000000298023224,0.64999997615814209,0.56999999284744263
488,0.60000002384185791,0,-0.60000002384185791,0.60000002384185791,1.2000000476837158,-0.60000002384185791,0.60000002384185791,1.2000000476837158,0.60000002384185791,1,0,0,0.20000000298023224,0.64999997615814209,0.56999999284744263
489,0.60000002384185791,0,-0.60000002384185791,0.60000002384185791,1.2000000476837158,0.60000002384185791,0.60000002384185791,0,0.60000002384185791,1,0,0,0.20000000298023224,0.64999997615814209,0.56999999284744263
490,-0.60000002384185791,0,-0.60000002384185791,0.60000002384185791,0,-0.60000002384185791,0.60000002384185791,0,0.60000002384185791,0,-1,0,0.20000000298023224,0.64999997615814209,0.56999999284744263
491,-0.60000002384185791,0,-0.60000002384185791,0.60000002384185791,0,0.60000002384185791,-0.60000002384185791,0,0.60000002384185791,0,-1,0,0.20000000298023224,0.64999997615814209,0.56999999284744263
492,-0.60000002384185791,1.2000000476837158,-0.60000002384185791,-0.60000002384185791,1.2000000476837158,0.60000002384185791,0.60000002384185791,1.2000000476837158,0.60000002384185791,0,1,0,0.20000000298023224,0.64999997615814209,0.56999999284744263
493,-0.60000002384185791,1.2000000476837158,-0.60000002384185791,0.60000002384185791,1.2000000476837158,0.60000002384185791,0.60000002384185791,1.2000000476837158,-0.60000002384185791,0,1,0,0.20000000298023224,0.64999997615814209,0.56999999284744263
494,-0.60000002384185791,0,-0.60000002384185791,-0.60000002384185791,1.2000000476837158,-0.60000002384185791,0.60000002384185791,1.2000000476837158,-0.60000002384185791,0,0,-1,0.30000001192092896,0.72000002861022949,0.64999997615814209
495,-0.60000002384185791,0,-0.60000002384185791,0.60000002384185791,1.2000000476837158,-0.60000002384185791,0.60000002384185791,0,-0.60000002384185791,0,0,-1,0.30000001192092896,0.72000002861022949,0.64999997615814209
496,-0.60000002384185791,0,0.60000002384185791,0.60000002384185791,0,0.60000002384185791,0.60000002384185791,1.2000000476837158,0.60000002384185791,0,0,1,0.30000001192092896,0.72000002861022949,0.64999997615814209
497,-0.60000002384185791,0,0.60000002384185791,0.60000002384185791,1.2000000476837158,0.60000002384185791,-0.60000002384185791,1.2000000476837158,0.60000002384185791,0,0,1,0.30000001192092896,0.72000002861022949,0.64999997615814209
498,-0.60000002384185791,0,-0.60000002384185791,-0.60000002384185791,0,0.60000002384185791,-0.60000002384185791,1.2000000476837158,0.60000002384185791,-1,0,0,0.30000001192092896,0.72000002861022949,0.64999997615814209
499,-0.60000002384185791,0,-0.60000002384185791,-0.60000002384185791,1.2000000476837158,0.60000002384185791,-0.60000002384185791,1.2000000476837158,-0.60000002384185791,-1,0,0,0.30000001192092896,0.72000002861022949,0.64999997615814209
500,0.60000002384185791,0,-0.60000002384185791,0.60000002384185791,1.2000000476837158,-0.60000002384185791,0.60000002384185791,1.2000000476837158,0.60000002384185791,1,0,0,0.30000001192092896,0.72000002861022949,0.64999997615814209
501,0.60000002384185791,0,-0.60000002384185791,0.60000002384185791,1.2000000476837158,0.60000002384185791,0.60000002384185791,0,0.60000002384185791,1,0,0,0.30000001192092896,0.72000002861022949,0.64999997615814209
502,-0.60000002384185791,0,-0.60000002384185791,0.60000002384185791,0,-0.60000002384185791,0.60000002384185791,0,0.60000002384185791,0,-1,0,0.30000001192092896,0.72000002861022949,0.64999997615814209
503,-0.60000002384185791,0,-0.60000002384185791,0.60000002384185791,0,0.60000002384185791,-0.60000002384185791,0,0.60000002384185791,0,-1,0,0.30000001192092896,0.72000002861022949,0.64999997615814209
504,-0.60000002384185791,1.2000000476837158,-0.60000002384185791,-0.60000002384185791,1.2000000476837158,0.60000002384185791,0.60000002384185791,1.2000000476837158,0.60000002384185791,0,1,0,0.30000001192092896,0.72000002861022949,0.64999997615814209
505,-0.60000002384185791,1.2000000476837158,-0.60000002384185791,0.60000002384185791,1.2000000476837158,0.60000002384185791,0.60000002384185791,1.2000000476837158,-0.60000002384185791,0,1,0,0.30000001192092896,0.72000002861022949,0.64999997615814209
506,-0.60000002384185791,0,-0.60000002384185791,-0.60000002384185791,1.2000000476837158,-0.60000002384185791,0.60000002384185791,1.2000000476837158,-0.60000002384185791,0,0,-1,0.40000000596046448,0.30000001192092896,0.25
507,-0.60000002384185791,0,-0.60000002384185791,0.60000002384185791,1.2000000476837158,-0.60000002384185791,0.60000002384185791,0,-0.60000002384185791,0,0,-1,0.40000000596046448,0.30000001192092896,0.25
508,-0.60000002384185791,0,0.60000002384185791,0.60000002384185791,0,0.60000002384185791,0.60000002384185791,1.2000000476837158,0.60000002384185791,0,0,1,0.40000000596046448,0.30000001192092896,0.25
509,-0.60000002384185791,0,0.60000002384185791,0.60000002384185791,1.2000000476837158,0.60000002384185791,-0.60000002384185791,1.2000000476837158,0.60000002384185791,0,0,1,0.40000000596046448,0.30000001192092896,0.25
510,-0.60000002384185791,0,-0.60000002384185791,-0.60000002384185791,0,0.60000002384185791,-0.60000002384185791,1.2000000476837158,0.60000002384185791,-1,0,0,0.40000000596046448,0.30000001192092896,0.25
511,-0.60000002384185791,0,-0.60000002384185791,-0.60000002384185791,1.2000000476837158,0.60000002384185791,-0.60000002384185791,1.2000000476837158,-0.60000002384185791,-1,0,0,0.40000000596046448,0.30000001192092896,0.25
512,0.60000002384185791,0,-0.60000002384185791,0.60000002384185791,1.2000000476837158,-0.60000002384185791,0.60000002384185791,1.2000000476837158,0.60000002384185791,1,0,0,0.40000000596046448,0.30000001192092896,0.25
513,0.60000002384185791,0,-0.60000002384185791,0.60000002384185791,1.2000000476837158,0.60000002384185791,0.60000002384185791,0,0.60000002384185791,1,0,0,0.40000000596046448,0.30000001192092896,0.25
514,-0.60000002384185791,0,-0.60000002384185791,0.60000002384185791,0,-0.60000002384185791,0.60000002384185791,0,0.60000002384185791,0,-1,0,0.40000000596046448,0.30000001192092896,0.25
515,-0.60000002384185791,0,-0.60000002384185791,0.60000002384185791,0,0.60000002384185791,-0.60000002384185791,0,0.60000002384185791,0,-1,0,0.40000000596046448,0.30000001192092896,0.25
516,-0.60000002384185791,1.2000000476837158,-0.60000002384185791,-0.60000002384185791,1.2000000476837158,0.60000002384185791,0.60000002384185791,1.2000000476837158,0.60000002384185791,0,1,0,0.40000000596046448,0.30000001192092896,0.25
517,-0.60000002384185791,1.2000000476837158,-0.60000002384185791,0.60000002384185791,1.2000000476837158,0.60000002384185791,0.60000002384185791,1.2000000476837158,-0.60000002384185791,0,1,0,0.40000000596046448,0.30000001192092896,0.25
518,-0.60000002384185791,0,-0.60000002384185791,-0.60000002384185791,1.2000000476837158,-0.60000002384185791,0.60000002384185791,1.2000000476837158,-0.60000002384185791,0,0,-1,0.5,0.37000000476837158,0.33000001311302185
519,-0.60000002384185791,0,-0.60000002384185791,0.60000002384185791,1.2000000476837158,-0.60000002384185791,0.60000002384185791,0,-0.60000002384185791,0,0,-1,0.5,0.37000000476837158,0.33000001311302185
520,-0.60000002384185791,0,0.60000002384185791,0.60000002384185791,0,0.60000002384185791,0.60000002384185791,1.2000000476837158,0.60000002384185791,0,0,1,0.5,0.37000000476837158,0.33000001311302185
521,-0.60000002384185791,0,0.60000002384185791,0.60000002384185791,1.2000000476837158,0.60000002384185791,-0.60000002384185791,1.2000000476837158,0.60000002384185791,0,0,1,0.5,0.37000000476837158,0.33000001311302185
522,-0.60000002384185791,0,-0.60000002384185791,-0.60000002384185791,0,0.60000002384185791,-0.60000002384185791,1.2000000476837158,0.60000002384185791,-1,0,0,0.5,0.37000000476837158,0.33000001311302185
523,-0.60000002384185791,0,-0.60000002384185791,-0.60000002384185791,1.2000000476837158,0.60000002384185791,-0.60000002384185791,1.2000000476837158,-0.60000002384185791,-1,0,0,0.5,0.37000000476837158,0.33000001311302185
524,0.60000002384185791,0,-0.60000002384185791,0.60000002384185791,1.2000000476837158,-0.60000002384185791,0.60000002384185791,1.2000000476837158,0.60000002384185791,1,0,0,0.5,0.37000000476837158,0.33000001311302185
525,0.60000002384185791,0,-0.60000002384185791,0.60000002384185791,1.2000000476837158,0.60000002384185791,0.60000002384185791,0,0.60000002384185791,1,0,0,0.5,0.37000000476837158,0.33000001311302185
526,-0.60000002384185791,0,-0.60000002384185791,0.60000002384185791,0,-0.60000002384185791,0.60000002384185791,0,0.60000002384185791,0,-1,0,0.5,0.37000000476837158,0.33000001311302185
527,-0.60000002384185791,0,-0.60000002384185791,0.60000002384185791,0,0.60000002384185791,-0.60000002384185791,0,0.60000002384185791,0,-1,0,0.5,0.37000000476837158,0.33000001311302185
528,-0.60000002384185791,1.2000000476837158,-0.60000002384185791,-0.60000002384185791,1.2000000476837158,0.60000002384185791,0.60000002384185791,1.2000000476837158,0.60000002384185791,0,1,0,0.5,0.37000000476837158,0.33000001311302185
529,-0.60000002384185791,1.2000000476837158,-0.60000002384185791,0.60000002384185791,1.2000000476837158,0.60000002384185791,0.60000002384185791,1.2000000476837158,-0.60000002384185791,0,1,0,0.5,0.37000000476837158,0.33000001311302185
530,-0.60000002384185791,0,-0.60000002384185791,-0.60000002384185791,1.2000000476837158,-0.60000002384185791,0.60000002384185791,1.2000000476837158,-0.60000002384185791,0,0,-1,0.60000002384185791,0.43999999761581421,0.40999999642372131
531,-0.60000002384185791,0,-0.60000002384185791,0.60000002384185791,1.2000000476837158,-0.60000002384185791,0.60000002384185791,0,-0.60000002384185791,0,0,-1,0.60000002384185791,0.43999999761581421,0.40999999642372131
532,-0.60000002384185791,0,0.60000002384185791,0.60000002384185791,0,0.60000002384185791,0.60000002384185791,1.2000000476837158,0.60000002384185791,0,0,1,0.60000002384185791,0.43999999761581421,0.40999999642372131
533,-0.60000002384185791,0,0.60000002384185791,0.60000002384185791,1.2000000476837158,0.60000002384185791,-0.60000002384185791,1.2000000476837158,0.60000002384185791,0,0,1,0.60000002384185791,0.43999999761581421,0.40999999642372131
534,-0.60000002384185791,0,-0.60000002384185791,-0.60000002384185791,0,0.60000002384185791,-0.60000002384185791,1.2000000476837158,0.60000002384185791,-1,0,0,0.60000002384185791,0.43999999761581421,0.40999999642372131
535,-0.60000002384185791,0,-0.60000002384185791,-0.60000002384185791,1.2000000476837158,0.60000002384185791,-0.60000002384185791,1.2000000476837158,-0.60000002384185791,-1,0,0,0.60000002384185791,0.43999999761581421,0.40999999642372131
536,0.60000002384185791,0,-0.60000002384185791,0.60000002384185791,1.2000000476837158,-0.60000002384185791,0.60000002384185791,1.2000000476837158,0.60000002384185791,1,0,0,0.60000002384185791,0.43999999761581421,0.40999999642372131
537,0.60000002384185791,0,-0.60000002384185791,0.60000002384185791,1.2000000476837158,0.60000002384185791,0.60000002384185791,0,0.60000002384185791,1,0,0,0.60000002384185791,0.43999999761581421,0.40999999642372131
538,-0.60000002384185791,0,-0.60000002384185791,0.60000002384185791,0,-0.60000002384185791,0.60000002384185791,0,0.60000002384185791,0,-1,0,0.60000002384185791,0.43999999761581421,0.40999999642372131
539,-0.60000002384185791,0,-0.60000002384185791,0.60000002384185791,0,0.60000002384185791,-0.60000002384185791,0,0.60000002384185791,0,-1,0,0.60000002384185791,0.43999999761581421,0.40999999642372131
540,-0.60000002384185791,1.2000000476837158,-0.60000002384185791,-0.60000002384185791,1.2000000476837158,0.60000002384185791,0.60000002384185791,1.2000000476837158,0.60000002384185791,0,1,0,0.60000002384185791,0.43999999761581421,0.40999999642372131
541,-0.60000002384185791,1.2000000476837158,-0.60000002384185791,0.60000002384185791,1.2000000476837158,0.60000002384185791,0.60000002384185791,1.2000000476837158,-0.60000002384185791,0,1,0,0.60000002384185791,0.43999999761581421,0.40999999642372131
542,-0.60000002384185791,0,-0.60000002384185791,-0.60000002384185791,1.2000000476837158,-0.60000002384185791,0.60000002384185791,1.2000000476837158,-0.60000002384185791,0,0,-1,0.20000000298023224,0.50999999046325684,0.49000000953674316
543,-0.60000002384185791,0,-0.60000002384185791,0.60000002384185791,1.2000000476837158,-0.60000002384185791,0.60000002384185791,0,-0.60000002384185791,0,0,-1,0.20000000298023224,0.50999999046325684,0.49000000953674316
544,-0.60000002384185791,0,0.60000002384185791,0.60000002384185791,0,0.60000002384185791,0.60000002384185791,1.2000000476837158,0.60000002384185791,0,0,1,0.20000000298023224,0.50999999046325684,0.49000000953674316
545,-0.60000002384185791,0,0.60000002384185791,0.60000002384185791,1.2000000476837158,0.60000002384185791,-0.60000002384185791,1.2000000476837158,0.60000002384185791,0,0,1,0.20000000298023224,0.50999999046325684,0.49000000953674316
546,-0.60000002384185791,0,-0.60000002384185791,-0.60000002384185791,0,0.60000002384185791,-0.60000002384185791,1.2000000476837158,0.60000002384185791,-1,0,0,0.20000000298023224,0.50999999046325684,0.49000000953674316
547,-0.60000002384185791,0,-0.60000002384185791,-0.60000002384185791,1.2000000476837158,0.60000002384185791,-0.60000002384185791,1.2000000476837158,-0.60000002384185791,-1,0,0,0.20000000298023224,0.50999999046325684,0.49000000953674316
