id,ax,ay,az,bx,by,bz,cx,cy,cz,nx,ny,nz,r,g,b
0,-5,0,-5,5,0,5,5,0,-5,0,1,0,0.55000001192092896,0.55000001192092896,0.55000001192092896
1,-5,0,-5,-5,0,5,5,0,5,0,1,0,0.55000001192092896,0.55000001192092896,0.55000001192092896
2,-3.0999999046325684,0,-1.1499999761581421,-3.0999999046325684,0.23999999463558197,-1.1499999761581421,-2.9000000953674316,0.23999999463558197,-1.1499999761581421,0,0,-1,0.20000000298023224,0.30000001192092896,0.25
3,-3.0999999046325684,0,-1.1499999761581421,-2.9000000953674316,0.23999999463558197,-1.1499999761581421,-2.9000000953674316,0,-1.1499999761581421,0,0,-1,0.20000000298023224,0.30000001192092896,0.25
4,-3.0999999046325684,0,-0.94999998807907104,-2.9000000953674316,0,-0.94999998807907104,-2.9000000953674316,0.23999999463558197,-0.94999998807907104,0,0,1,0.20000000298023224,0.30000001192092896,0.25
5,-3.0999999046325684,0,-0.94999998807907104,-2.9000000953674316,0.23999999463558197,-0.94999998807907104,-3.0999999046325684,0.23999999463558197,-0.94999998807907104,0,0,1,0.20000000298023224,0.30000001192092896,0.25
6,-3.0999999046325684,0,-1.1499999761581421,-3.0999999046325684,0,-0.94999998807907104,-3.0999999046325684,0.23999999463558197,-0.94999998807907104,-1,0,0,0.20000000298023224,0.30000001192092896,0.25
7,-3.0999999046325684,0,-1.1499999761581421,-3.0999999046325684,0.23999999463558197,-0.94999998807907104,-3.0999999046325684,0.23999999463558197,-1.1499999761581421,-1,0,0,0.20000000298023224,0.30000001192092896,0.25
8,-2.9000000953674316,0,-1.1499999761581421,-2.9000000953674316,0.23999999463558197,-1.1499999761581421,-2.9000000953674316,0.23999999463558197,-0.94999998807907104,1,0,0,0.20000000298023224,0.30000001192092896,0.25
9,-2.9000000953674316,0,-1.1499999761581421,-2.9000000953674316,0.23999999463558197,-0.94999998807907104,-2.9000000953674316,0,-0.94999998807907104,1,0,0,0.20000000298023224,0.30000001192092896,0.25
10,-3.0999999046325684,0,-1.1499999761581421,-2.9000000953674316,0,-1.1499999761581421,-2.9000000953674316,0,-0.94999998807907104,0,-1,0,0.20000000298023224,0.30000001192092896,0.25
11,-3.0999999046325684,0,-1.1499999761581421,-2.9000000953674316,0,-0.94999998807907104,-3.0999999046325684,0,-0.94999998807907104,0,-1,0,0.20000000298023224,0.30000001192092896,0.25
12,-3.0999999046325684,0.23999999463558197,-1.1499999761581421,-3.0999999046325684,0.23999999463558197,-0.94999998807907104,-2.9000000953674316,0.23999999463558197,-0.94999998807907104,0,1,0,0.20000000298023224,0.30000001192092896,0.25
13,-3.0999999046325684,0.23999999463558197,-1.1499999761581421,-2.9000000953674316,0.23999999463558197,-0.94999998807907104,-2.9000000953674316,0.23999999463558197,-1.1499999761581421,0,1,0,0.20000000298023224,0.30000001192092896,0.25
14,-2.7999999523162842,0,-1.1499999761581421,-2.7999999523162842,0.23999999463558197,-1.1499999761581421,-2.5999999046325684,0.23999999463558197,-1.1499999761581421,0,0,-1,0.30000001192092896,0.37000000476837158,0.33000001311302185
15,-2.7999999523162842,0,-1.1499999761581421,-2.5999999046325684,0.23999999463558197,-1.1499999761581421,-2.5999999046325684,0,-1.1499999761581421,0,0,-1,0.30000001192092896,0.37000000476837158,0.33000001311302185
16,-2.7999999523162842,0,-0.94999998807907104,-2.5999999046325684,0,-0.94999998807907104,-2.5999999046325684,0.23999999463558197,-0.94999998807907104,0,0,1,0.30000001192092896,0.37000000476837158,0.33000001311302185
17,-2.7999999523162842,0,-0.94999998807907104,-2.5999999046325684,0.23999999463558197,-0.94999998807907104,-2.7999999523162842,0.23999999463558197,-0.94999998807907104,0,0,1,0.30000001192092896,0.37000000476837158,0.33000001311302185
18,-2.7999999523162842,0,-1.1499999761581421,-2.7999999523162842,0,-0.94999998807907104,-2.7999999523162842,0.23999999463558197,-0.94999998807907104,-1,0,0,0.30000001192092896,0.37000000476837158,0.33000001311302185
19,-2.7999999523162842,0,-1.1499999761581421,-2.7999999523162842,0.23999999463558197,-0.94999998807907104,-2.7999999523162842,0.23999999463558197,-1.1499999761581421,-1,0,0,0.30000001192092896,0.37000000476837158,0.33000001311302185
20,-2.5999999046325684,0,-1.1499999761581421,-2.5999999046325684,0.23999999463558197,-1.1499999761581421,-2.5999999046325684,0.23999999463558197,-0.94999998807907104,1,0,0,0.30000001192092896,0.37000000476837158,0.33000001311302185
21,-2.5999999046325684,0,-1.1499999761581421,-2.5999999046325684,0.23999999463558197,-0.94999998807907104,-2.5999999046325684,0,-0.94999998807907104,1,0,0,0.30000001192092896,0.37000000476837158,0.33000001311302185
22,-2.7999999523162842,0,-1.1499999761581421,-2.5999999046325684,0,-1.1499999761581421,-2.5999999046325684,0,-0.94999998807907104,0,-1,0,0.30000001192092896,0.37000000476837158,0.33000001311302185
23,-2.7999999523162842,0,-1.1499999761581421,-2.5999999046325684,0,-0.94999998807907104,-2.7999999523162842,0,-0.94999998807907104,0,-1,0,0.30000001192092896,0.37000000476837158,0.33000001311302185
24,-2.7999999523162842,0.23999999463558197,-1.1499999761581421,-2.7999999523162842,0.23999999463558197,-0.94999998807907104,-2.5999999046325684,0.23999999463558197,-0.94999998807907104,0,1,0,0.30000001192092896,0.37000000476837158,0.33000001311302185
25,-2.7999999523162842,0.23999999463558197,-1.1499999761581421,-2.5999999046325684,0.23999999463558197,-0.94999998807907104,-2.5999999046325684,0.23999999463558197,-1.1499999761581421,0,1,0,0.30000001192092896,0.37000000476837158,0.33000001311302185
26,-2.5,0,-1.1499999761581421,-2.5,0.23999999463558197,-1.1499999761581421,-2.2999999523162842,0.23999999463558197,-1.1499999761581421,0,0,-1,0.40000000596046448,0.43999999761581421,0.40999999642372131
27,-2.5,0,-1.1499999761581421,-2.2999999523162842,0.23999999463558197,-1.1499999761581421,-2.2999999523162842,0,-1.1499999761581421,0,0,-1,0.40000000596046448,0.43999999761581421,0.40999999642372131
28,-2.5,0,-0.94999998807907104,-2.2999999523162842,0,-0.94999998807907104,-2.2999999523162842,0.23999999463558197,-0.94999998807907104,0,0,1,0.40000000596046448,0.43999999761581421,0.40999999642372131
29,-2.5,0,-0.94999998807907104,-2.2999999523162842,0.23999999463558197,-0.94999998807907104,-2.5,0.23999999463558197,-0.94999998807907104,0,0,1,0.40000000596046448,0.43999999761581421,0.40999999642372131
30,-2.5,0,-1.1499999761581421,-2.5,0,-0.94999998807907104,-2.5,0.23999999463558197,-0.94999998807907104,-1,0,0,0.40000000596046448,0.43999999761581421,0.40999999642372131
31,-2.5,0,-1.1499999761581421,-2.5,0.23999999463558197,-0.94999998807907104,-2.5,0.23999999463558197,-1.1499999761581421,-1,0,0,0.40000000596046448,0.43999999761581421,0.40999999642372131
32,-2.2999999523162842,0,-1.1499999761581421,-2.2999999523162842,0.23999999463558197,-1.1499999761581421,-2.2999999523162842,0.23999999463558197,-0.94999998807907104,1,0,0,0.40000000596046448,0.43999999761581421,0.40999999642372131
33,-2.2999999523162842,0,-1.1499999761581421,-2.2999999523162842,0.23999999463558197,-0.94999998807907104,-2.2999999523162842,0,-0.94999998807907104,1,0,0,0.40000000596046448,0.43999999761581421,0.40999999642372131
34,-2.5,0,-1.1499999761581421,-2.2999999523162842,0,-1.1499999761581421,-2.2999999523162842,0,-0.94999998807907104,0,-1,0,0.40000000596046448,0.43999999761581421,0.40999999642372131
35,-2.5,0,-1.1499999761581421,-2.2999999523162842,0,-0.94999998807907104,-2.5,0,-0.94999998807907104,0,-1,0,0.40000000596046448,0.43999999761581421,0.40999999642372131
36,-2.5,0.23999999463558197,-1.1499999761581421,-2.5,0.23999999463558197,-0.94999998807907104,-2.2999999523162842,0.23999999463558197,-0.94999998807907104,0,1,0,0.40000000596046448,0.43999999761581421,0.40999999642372131
37,-2.5,0.23999999463558197,-1.1499999761581421,-2.2999999523162842,0.23999999463558197,-0.94999998807907104,-2.2999999523162842,0.23999999463558197,-1.1499999761581421,0,1,0,0.40000000596046448,0.43999999761581421,0.40999999642372131
38,-2.2000000476837158,0,-1.1499999761581421,-2.2000000476837158,0.23999999463558197,-1.1499999761581421,-2,0.23999999463558197,-1.1499999761581421,0,0,-1,0.5,0.50999999046325684,0.49000000953674316
39,-2.2000000476837158,0,-1.1499999761581421,-2,0.23999999463558197,-1.1499999761581421,-2,0,-1.1499999761581421,0,0,-1,0.5,0.50999999046325684,0.49000000953674316
40,-2.2000000476837158,0,-0.94999998807907104,-2,0,-0.94999998807907104,-2,0.23999999463558197,-0.94999998807907104,0,0,1,0.5,0.50999999046325684,0.49000000953674316
41,-2.2000000476837158,0,-0.94999998807907104,-2,0.23999999463558197,-0.94999998807907104,-2.2000000476837158,0.23999999463558197,-0.94999998807907104,0,0,1,0.5,0.50999999046325684,0.49000000953674316
42,-2.2000000476837158,0,-1.1499999761581421,-2.2000000476837158,0,-0.94999998807907104,-2.2000000476837158,0.23999999463558197,-0.94999998807907104,-1,0,0,0.5,0.50999999046325684,0.49000000953674316
43,-2.2000000476837158,0,-1.1499999761581421,-2.2000000476837158,0.23999999463558197,-0.94999998807907104,-2.2000000476837158,0.23999999463558197,-1.1499999761581421,-1,0,0,0.5,0.50999999046325684,0.49000000953674316
44,-2,0,-1.1499999761581421,-2,0.23999999463558197,-1.1499999761581421,-2,0.23999999463558197,-0.94999998807907104,1,0,0,0.5,0.50999999046325684,0.49000000953674316
45,-2,0,-1.1499999761581421,-2,0.23999999463558197,-0.94999998807907104,-2,0,-0.94999998807907104,1,0,0,0.5,0.50999999046325684,0.49000000953674316
46,-2.2000000476837158,0,-1.1499999761581421,-2,0,-1.1499999761581421,-2,0,-0.94999998807907104,0,-1,0,0.5,0.50999999046325684,0.49000000953674316
47,-2.2000000476837158,0,-1.1499999761581421,-2,0,-0.94999998807907104,-2.2000000476837158,0,-0.94999998807907104,0,-1,0,0.5,0.50999999046325684,0.49000000953674316
48,-2.2000000476837158,0.23999999463558197,-1.1499999761581421,-2.2000000476837158,0.23999999463558197,-0.94999998807907104,-2,0.23999999463558197,-0.94999998807907104,0,1,0,0.5,0.50999999046325684,0.49000000953674316
49,-2.2000000476837158,0.23999999463558197,-1.1499999761581421,-2,0.23999999463558197,-0.94999998807907104,-2,0.23999999463558197,-1.1499999761581421,0,1,0,0.5,0.50999999046325684,0.49000000953674316
50,-1.8999999761581421,0,-1.1499999761581421,-1.8999999761581421,0.23999999463558197,-1.1499999761581421,-1.7000000476837158,0.23999999463558197,-1.1499999761581421,0,0,-1,0.60000002384185791,0.57999998331069946,0.56999999284744263
51,-1.8999999761581421,0,-1.1499999761581421,-1.7000000476837158,0.23999999463558197,-1.1499999761581421,-1.7000000476837158,0,-1.1499999761581421,0,0,-1,0.60000002384185791,0.57999998331069946,0.56999999284744263
52,-1.8999999761581421,0,-0.94999998807907104,-1.7000000476837158,0,-0.94999998807907104,-1.7000000476837158,0.23999999463558197,-0.94999998807907104,0,0,1,0.60000002384185791,0.57999998331069946,0.56999999284744263
53,-1.8999999761581421,0,-0.94999998807907104,-1.7000000476837158,0.23999999463558197,-0.94999998807907104,-1.8999999761581421,0.23999999463558197,-0.94999998807907104,0,0,1,0.60000002384185791,0.57999998331069946,0.56999999284744263
54,-1.8999999761581421,0,-1.1499999761581421,-1.8999999761581421,0,-0.94999998807907104,-1.8999999761581421,0.23999999463558197,-0.94999998807907104,-1,0,0,0.60000002384185791,0.57999998331069946,0.56999999284744263
55,-1.8999999761581421,0,-1.1499999761581421,-1.8999999761581421,0.23999999463558197,-0.94999998807907104,-1.8999999761581421,0.23999999463558197,-1.1499999761581421,-1,0,0,0.60000002384185791,0.57999998331069946,0.56999999284744263
56,-1.7000000476837158,0,-1.1499999761581421,-1.7000000476837158,0.23999999463558197,-1.1499999761581421,-1.7000000476837158,0.23999999463558197,-0.94999998807907104,1,0,0,0.60000002384185791,0.57999998331069946,0.56999999284744263
57,-1.7000000476837158,0,-1.1499999761581421,-1.7000000476837158,0.23999999463558197,-0.94999998807907104,-1.7000000476837158,0,-0.94999998807907104,1,0,0,0.60000002384185791,0.57999998331069946,0.56999999284744263
58,-1.8999999761581421,0,-1.1499999761581421,-1.7000000476837158,0,-1.1499999761581421,-1.7000000476837158,0,-0.94999998807907104,0,-1,0,0.60000002384185791,0.57999998331069946,0.56999999284744263
59,-1.8999999761581421,0,-1.1499999761581421,-1.7000000476837158,0,-0.94999998807907104,-1.8999999761581421,0,-0.94999998807907104,0,-1,0,0.60000002384185791,0.57999998331069946,0.56999999284744263
60,-1.8999999761581421,0.23999999463558197,-1.1499999761581421,-1.8999999761581421,0.23999999463558197,-0.94999998807907104,-1.7000000476837158,0.23999999463558197,-0.94999998807907104,0,1,0,0.60000002384185791,0.57999998331069946,0.56999999284744263
61,-1.8999999761581421,0.23999999463558197,-1.1499999761581421,-1.7000000476837158,0.23999999463558197,-0.94999998807907104,-1.7000000476837158,0.23999999463558197,-1.1499999761581421,0,1,0,0.60000002384185791,0.57999998331069946,0.56999999284744263
62,-1.6000000238418579,0,-1.1499999761581421,-1.6000000238418579,0.23999999463558197,-1.1499999761581421,-1.3999999761581421,0.23999999463558197,-1.1499999761581421,0,0,-1,0.20000000298023224,0.64999997615814209,0.64999997615814209
63,-1.6000000238418579,0,-1.1499999761581421,-1.3999999761581421,0.23999999463558197,-1.1499999761581421,-1.3999999761581421,0,-1.1499999761581421,0,0,-1,0.20000000298023224,0.64999997615814209,0.64999997615814209
64,-1.6000000238418579,0,-0.94999998807907104,-1.3999999761581421,0,-0.94999998807907104,-1.3999999761581421,0.23999999463558197,-0.94999998807907104,0,0,1,0.20000000298023224,0.64999997615814209,0.64999997615814209
65,-1.6000000238418579,0,-0.94999998807907104,-1.3999999761581421,0.23999999463558197,-0.94999998807907104,-1.6000000238418579,0.23999999463558197,-0.94999998807907104,0,0,1,0.20000000298023224,0.64999997615814209,0.64999997615814209
66,-1.6000000238418579,0,-1.1499999761581421,-1.6000000238418579,0,-0.94999998807907104,-1.6000000238418579,0.23999999463558197,-0.94999998807907104,-1,0,0,0.20000000298023224,0.64999997615814209,0.64999997615814209
67,-1.6000000238418579,0,-1.1499999761581421,-1.6000000238418579,0.23999999463558197,-0.94999998807907104,-1.6000000238418579,0.23999999463558197,-1.1499999761581421,-1,0,0,0.20000000298023224,0.64999997615814209,0.64999997615814209
68,-1.3999999761581421,0,-1.1499999761581421,-1.3999999761581421,0.23999999463558197,-1.1499999761581421,-1.3999999761581421,0.23999999463558197,-0.94999998807907104,1,0,0,0.20000000298023224,0.64999997615814209,0.64999997615814209
69,-1.3999999761581421,0,-1.1499999761581421,-1.3999999761581421,0.23999999463558197,-0.94999998807907104,-1.3999999761581421,0,-0.94999998807907104,1,0,0,0.20000000298023224,0.64999997615814209,0.64999997615814209
70,-1.6000000238418579,0,-1.1499999761581421,-1.3999999761581421,0,-1.1499999761581421,-1.3999999761581421,0,-0.94999998807907104,0,-1,0,0.20000000298023224,0.64999997615814209,0.64999997615814209
71,-1.6000000238418579,0,-1.1499999761581421,-1.3999999761581421,0,-0.94999998807907104,-1.6000000238418579,0,-0.94999998807907104,0,-1,0,0.20000000298023224,0.64999997615814209,0.64999997615814209
72,-1.6000000238418579,0.23999999463558197,-1.1499999761581421,-1.6000000238418579,0.23999999463558197,-0.94999998807907104,-1.3999999761581421,0.23999999463558197,-0.94999998807907104,0,1,0,0.20000000298023224,0.64999997615814209,0.64999997615814209
73,-1.6000000238418579,0.23999999463558197,-1.1499999761581421,-1.3999999761581421,0.23999999463558197,-0.94999998807907104,-1.3999999761581421,0.23999999463558197,-1.1499999761581421,0,1,0,0.20000000298023224,0.64999997615814209,0.64999997615814209
74,-1.2999999523162842,0,-1.1499999761581421,-1.2999999523162842,0.23999999463558197,-1.1499999761581421,-1.1000000238418579,0.23999999463558197,-1.1499999761581421,0,0,-1,0.30000001192092896,0.72000002861022949,0.25
75,-1.2999999523162842,0,-1.1499999761581421,-1.1000000238418579,0.23999999463558197,-1.1499999761581421,-1.1000000238418579,0,-1.1499999761581421,0,0,-1,0.30000001192092896,0.72000002861022949,0.25
76,-1.2999999523162842,0,-0.94999998807907104,-1.1000000238418579,0,-0.94999998807907104,-1.1000000238418579,0.23999999463558197,-0.94999998807907104,0,0,1,0.30000001192092896,0.72000002861022949,0.25
77,-1.2999999523162842,0,-0.94999998807907104,-1.1000000238418579,0.23999999463558197,-0.94999998807907104,-1.2999999523162842,0.23999999463558197,-0.94999998807907104,0,0,1,0.30000001192092896,0.72000002861022949,0.25
78,-1.2999999523162842,0,-1.1499999761581421,-1.2999999523162842,0,-0.94999998807907104,-1.2999999523162842,0.23999999463558197,-0.94999998807907104,-1,0,0,0.30000001192092896,0.72000002861022949,0.25
79,-1.2999999523162842,0,-1.1499999761581421,-1.2999999523162842,0.23999999463558197,-0.94999998807907104,-1.2999999523162842,0.23999999463558197,-1.1499999761581421,-1,0,0,0.30000001192092896,0.72000002861022949,0.25
80,-1.1000000238418579,0,-1.1499999761581421,-1.1000000238418579,0.23999999463558197,-1.1499999761581421,-1.1000000238418579,0.23999999463558197,-0.94999998807907104,1,0,0,0.30000001192092896,0.72000002861022949,0.25
81,-1.1000000238418579,0,-1.1499999761581421,-1.1000000238418579,0.23999999463558197,-0.94999998807907104,-1.1000000238418579,0,-0.94999998807907104,1,0,0,0.30000001192092896,0.72000002861022949,0.25
82,-1.2999999523162842,0,-1.1499999761581421,-1.1000000238418579,0,-1.1499999761581421,-1.1000000238418579,0,-0.94999998807907104,0,-1,0,0.30000001192092896,0.72000002861022949,0.25
83,-1.2999999523162842,0,-1.1499999761581421,-1.1000000238418579,0,-0.94999998807907104,-1.2999999523162842,0,-0.94999998807907104,0,-1,0,0.30000001192092896,0.72000002861022949,0.25
84,-1.2999999523162842,0.23999999463558197,-1.1499999761581421,-1.2999999523162842,0.23999999463558197,-0.94999998807907104,-1.1000000238418579,0.23999999463558197,-0.94999998807907104,0,1,0,0.30000001192092896,0.72000002861022949,0.25
85,-1.2999999523162842,0.23999999463558197,-1.1499999761581421,-1.1000000238418579,0.23999999463558197,-0.94999998807907104,-1.1000000238418579,0.23999999463558197,-1.1499999761581421,0,1,0,0.30000001192092896,0.72000002861022949,0.25
86,-3.0999999046325684,0,-0.85000002384185791,-3.0999999046325684,0.23999999463558197,-0.85000002384185791,-2.9000000953674316,0.23999999463558197,-0.85000002384185791,0,0,-1,0.40000000596046448,0.30000001192092896,0.33000001311302185
87,-3.0999999046325684,0,-0.85000002384185791,-2.9000000953674316,0.23999999463558197,-0.85000002384185791,-2.9000000953674316,0,-0.85000002384185791,0,0,-1,0.40000000596046448,0.30000001192092896,0.33000001311302185
88,-3.0999999046325684,0,-0.64999997615814209,-2.9000000953674316,0,-0.64999997615814209,-2.9000000953674316,0.23999999463558197,-0.64999997615814209,0,0,1,0.40000000596046448,0.30000001192092896,0.33000001311302185
89,-3.0999999046325684,0,-0.64999997615814209,-2.9000000953674316,0.23999999463558197,-0.64999997615814209,-3.0999999046325684,0.23999999463558197,-0.64999997615814209,0,0,1,0.40000000596046448,0.30000001192092896,0.33000001311302185
90,-3.0999999046325684,0,-0.85000002384185791,-3.0999999046325684,0,-0.64999997615814209,-3.0999999046325684,0.23999999463558197,-0.64999997615814209,-1,0,0,0.40000000596046448,0.30000001192092896,0.33000001311302185
91,-3.0999999046325684,0,-0.85000002384185791,-3.0999999046325684,0.23999999463558197,-0.64999997615814209,-3.0999999046325684,0.23999999463558197,-0.85000002384185791,-1,0,0,0.40000000596046448,0.30000001192092896,0.33000001311302185
92,-2.9000000953674316,0,-0.85000002384185791,-2.9000000953674316,0.23999999463558197,-0.85000002384185791,-2.9000000953674316,0.23999999463558197,-0.64999997615814209,1,0,0,0.40000000596046448,0.30000001192092896,0.33000001311302185
93,-2.9000000953674316,0,-0.85000002384185791,-2.9000000953674316,0.23999999463558197,-0.64999997615814209,-2.9000000953674316,0,-0.64999997615814209,1,0,0,0.40000000596046448,0.30000001192092896,0.33000001311302185
94,-3.0999999046325684,0,-0.85000002384185791,-2.9000000953674316,0,-0.85000002384185791,-2.9000000953674316,0,-0.64999997615814209,0,-1,0,0.40000000596046448,0.30000001192092896,0.33000001311302185
95,-3.0999999046325684,0,-0.85000002384185791,-2.9000000953674316,0,-0.64999997615814209,-3.0999999046325684,0,-0.64999997615814209,0,-1,0,0.40000000596046448,0.30000001192092896,0.33000001311302185
96,-3.0999999046325684,0.23999999463558197,-0.85000002384185791,-3.0999999046325684,0.23999999463558197,-0.64999997615814209,-2.9000000953674316,0.23999999463558197,-0.64999997615814209,0,1,0,0.40000000596046448,0.30000001192092896,0.33000001311302185
97,-3.0999999046325684,0.23999999463558197,-0.85000002384185791,-2.9000000953674316,0.23999999463558197,-0.64999997615814209,-2.9000000953674316,0.23999999463558197,-0.85000002384185791,0,1,0,0.40000000596046448,0.30000001192092896,0.33000001311302185
98,-2.7999999523162842,0,-0.85000002384185791,-2.7999999523162842,0.23999999463558197,-0.85000002384185791,-2.5999999046325684,0.23999999463558197,-0.85000002384185791,0,0,-1,0.5,0.37000000476837158,0.40999999642372131
99,-2.7999999523162842,0,-0.85000002384185791,-2.5999999046325684,0.23999999463558197,-0.85000002384185791,-2.5999999046325684,0,-0.85000002384185791,0,0,-1,0.5,0.37000000476837158,0.40999999642372131
100,-2.7999999523162842,0,-0.64999997615814209,-2.5999999046325684,0,-0.64999997615814209,-2.5999999046325684,0.23999999463558197,-0.64999997615814209,0,0,1,0.5,0.37000000476837158,0.40999999642372131
101,-2.7999999523162842,0,-0.64999997615814209,-2.5999999046325684,0.23999999463558197,-0.64999997615814209,-2.7999999523162842,0.23999999463558197,-0.64999997615814209,0,0,1,0.5,0.37000000476837158,0.40999999642372131
102,-2.7999999523162842,0,-0.85000002384185791,-2.7999999523162842,0,-0.64999997615814209,-2.7999999523162842,0.23999999463558197,-0.64999997615814209,-1,0,0,0.5,0.37000000476837158,0.40999999642372131
103,-2.7999999523162842,0,-0.85000002384185791,-2.7999999523162842,0.23999999463558197,-0.64999997615814209,-2.7999999523162842,0.23999999463558197,-0.85000002384185791,-1,0,0,0.5,0.37000000476837158,0.40999999642372131
104,-2.5999999046325684,0,-0.85000002384185791,-2.5999999046325684,0.23999999463558197,-0.85000002384185791,-2.5999999046325684,0.23999999463558197,-0.64999997615814209,1,0,0,0.5,0.37000000476837158,0.40999999642372131
105,-2.5999999046325684,0,-0.85000002384185791,-2.5999999046325684,0.23999999463558197,-0.64999997615814209,-2.5999999046325684,0,-0.64999997615814209,1,0,0,0.5,0.37000000476837158,0.40999999642372131
106,-2.7999999523162842,0,-0.85000002384185791,-2.5999999046325684,0,-0.85000002384185791,-2.5999999046325684,0,-0.64999997615814209,0,-1,0,0.5,0.37000000476837158,0.40999999642372131
107,-2.7999999523162842,0,-0.85000002384185791,-2.5999999046325684,0,-0.64999997615814209,-2.7999999523162842,0,-0.64999997615814209,0,-1,0,0.5,0.37000000476837158,0.40999999642372131
108,-2.7999999523162842,0.23999999463558197,-0.85000002384185791,-2.7999999523162842,0.23999999463558197,-0.64999997615814209,-2.5999999046325684,0.23999999463558197,-0.64999997615814209,0,1,0,0.5,0.37000000476837158,0.40999999642372131
109,-2.7999999523162842,0.23999999463558197,-0.85000002384185791,-2.5999999046325684,0.23999999463558197,-0.64999997615814209,-2.5999999046325684,0.23999999463558197,-0.85000002384185791,0,1,0,0.5,0.37000000476837158,0.40999999642372131
110,-2.5,0,-0.85000002384185791,-2.5,0.23999999463558197,-0.85000002384185791,-2.2999999523162842,0.23999999463558197,-0.85000002384185791,0,0,-1,0.60000002384185791,0.43999999761581421,0.49000000953674316
111,-2.5,0,-0.85000002384185791,-2.2999999523162842,0.23999999463558197,-0.85000002384185791,-2.2999999523162842,0,-0.85000002384185791,0,0,-1,0.60000002384185791,0.43999999761581421,0.49000000953674316
112,-2.5,0,-0.64999997615814209,-2.2999999523162842,0,-0.64999997615814209,-2.2999999523162842,0.23999999463558197,-0.64999997615814209,0,0,1,0.60000002384185791,0.43999999761581421,0.49000000953674316
113,-2.5,0,-0.64999997615814209,-2.2999999523162842,0.23999999463558197,-0.64999997615814209,-2.5,0.23999999463558197,-0.64999997615814209,0,0,1,0.60000002384185791,0.43999999761581421,0.49000000953674316
114,-2.5,0,-0.85000002384185791,-2.5,0,-0.64999997615814209,-2.5,0.23999999463558197,-0.64999997615814209,-1,0,0,0.60000002384185791,0.43999999761581421,0.49000000953674316
115,-2.5,0,-0.85000002384185791,-2.5,0.23999999463558197,-0.64999997615814209,-2.5,0.23999999463558197,-0.85000002384185791,-1,0,0,0.60000002384185791,0.43999999761581421,0.49000000953674316
116,-2.2999999523162842,0,-0.85000002384185791,-2.2999999523162842,0.23999999463558197,-0.85000002384185791,-2.2999999523162842,0.23999999463558197,-0.64999997615814209,1,0,0,0.60000002384185791,0.43999999761581421,0.49000000953674316
117,-2.2999999523162842,0,-0.85000002384185791,-2.2999999523162842,0.23999999463558197,-0.64999997615814209,-2.2999999523162842,0,-0.64999997615814209,1,0,0,0.60000002384185791,0.43999999761581421,0.49000000953674316
118,-2.5,0,-0.85000002384185791,-2.2999999523162842,0,-0.85000002384185791,-2.2999999523162842,0,-0.64999997615814209,0,-1,0,0.60000002384185791,0.43999999761581421,0.49000000953674316
119,-2.5,0,-0.85000002384185791,-2.2999999523162842,0,-0.64999997615814209,-2.5,0,-0.64999997615814209,0,-1,0,0.60000002384185791,0.43999999761581421,0.49000000953674316
120,-2.5,0.23999999463558197,-0.85000002384185791,-2.5,0.23999999463558197,-0.64999997615814209,-2.2999999523162842,0.23999999463558197,-0.64999997615814209,0,1,0,0.60000002384185791,0.43999999761581421,0.49000000953674316
121,-2.5,0.23999999463558197,-0.85000002384185791,-2.2999999523162842,0.23999999463558197,-0.64999997615814209,-2.2999999523162842,0.23999999463558197,-0.85000002384185791,0,1,0,0.60000002384185791,0.43999999761581421,0.49000000953674316
122,-2.2000000476837158,0,-0.85000002384185791,-2.2000000476837158,0.23999999463558197,-0.85000002384185791,-2,0.23999999463558197,-0.85000002384185791,0,0,-1,0.20000000298023224,0.50999999046325684,0.56999999284744263
123,-2.2000000476837158,0,-0.85000002384185791,-2,0.23999999463558197,-0.85000002384185791,-2,0,-0.85000002384185791,0,0,-1,0.20000000298023224,0.50999999046325684,0.56999999284744263
124,-2.2000000476837158,0,-0.64999997615814209,-2,0,-0.64999997615814209,-2,0.23999999463558197,-0.64999997615814209,0,0,1,0.20000000298023224,0.50999999046325684,0.56999999284744263
125,-2.2000000476837158,0,-0.64999997615814209,-2,0.23999999463558197,-0.64999997615814209,-2.2000000476837158,0.23999999463558197,-0.64999997615814209,0,0,1,0.20000000298023224,0.50999999046325684,0.56999999284744263
126,-2.2000000476837158,0,-0.85000002384185791,-2.2000000476837158,0,-0.64999997615814209,-2.2000000476837158,0.23999999463558197,-0.64999997615814209,-1,0,0,0.20000000298023224,0.50999999046325684,0.56999999284744263
127,-2.2000000476837158,0,-0.85000002384185791,-2.2000000476837158,0.23999999463558197,-0.64999997615814209,-2.2000000476837158,0.23999999463558197,-0.85000002384185791,-1,0,0,0.20000000298023224,0.50999999046325684,0.56999999284744263
128,-2,0,-0.85000002384185791,-2,0.23999999463558197,-0.85000002384185791,-2,0.23999999463558197,-0.64999997615814209,1,0,0,0.20000000298023224,0.50999999046325684,0.56999999284744263
129,-2,0,-0.85000002384185791,-2,0.23999999463558197,-0.64999997615814209,-2,0,-0.64999997615814209,1,0,0,0.20000000298023224,0.50999999046325684,0.56999999284744263
130,-2.2000000476837158,0,-0.85000002384185791,-2,0,-0.85000002384185791,-2,0,-0.64999997615814209,0,-1,0,0.20000000298023224,0.50999999046325684,0.56999999284744263
131,-2.2000000476837158,0,-0.85000002384185791,-2,0,-0.64999997615814209,-2.2000000476837158,0,-0.64999997615814209,0,-1,0,0.20000000298023224,0.50999999046325684,0.56999999284744263
132,-2.2000000476837158,0.23999999463558197,-0.85000002384185791,-2.2000000476837158,0.23999999463558197,-0.64999997615814209,-2,0.23999999463558197,-0.64999997615814209,0,1,0,0.20000000298023224,0.50999999046325684,0.56999999284744263
133,-2.2000000476837158,0.23999999463558197,-0.85000002384185791,-2,0.23999999463558197,-0.64999997615814209,-2,0.23999999463558197,-0.85000002384185791,0,1,0,0.20000000298023224,0.50999999046325684,0.56999999284744263
134,-1.8999999761581421,0,-0.85000002384185791,-1.8999999761581421,0.23999999463558197,-0.85000002384185791,-1.7000000476837158,0.23999999463558197,-0.85000002384185791,0,0,-1,0.30000001192092896,0.57999998331069946,0.64999997615814209
135,-1.8999999761581421,0,-0.85000002384185791,-1.7000000476837158,0.23999999463558197,-0.85000002384185791,-1.7000000476837158,0,-0.85000002384185791,0,0,-1,0.30000001192092896,0.57999998331069946,0.64999997615814209
136,-1.8999999761581421,0,-0.64999997615814209,-1.7000000476837158,0,-0.64999997615814209,-1.7000000476837158,0.23999999463558197,-0.64999997615814209,0,0,1,0.30000001192092896,0.57999998331069946,0.64999997615814209
137,-1.8999999761581421,0,-0.64999997615814209,-1.7000000476837158,0.23999999463558197,-0.64999997615814209,-1.8999999761581421,0.23999999463558197,-0.64999997615814209,0,0,1,0.30000001192092896,0.57999998331069946,0.64999997615814209
138,-1.8999999761581421,0,-0.85000002384185791,-1.8999999761581421,0,-0.64999997615814209,-1.8999999761581421,0.23999999463558197,-0.64999997615814209,-1,0,0,0.30000001192092896,0.57999998331069946,0.64999997615814209
139,-1.8999999761581421,0,-0.85000002384185791,-1.8999999761581421,0.23999999463558197,-0.64999997615814209,-1.8999999761581421,0.23999999463558197,-0.85000002384185791,-1,0,0,0.30000001192092896,0.57999998331069946,0.64999997615814209
140,-1.7000000476837158,0,-0.85000002384185791,-1.7000000476837158,0.23999999463558197,-0.85000002384185791,-1.7000000476837158,0.23999999463558197,-0.64999997615814209,1,0,0,0.30000001192092896,0.57999998331069946,0.64999997615814209
141,-1.7000000476837158,0,-0.85000002384185791,-1.7000000476837158,0.23999999463558197,-0.64999997615814209,-1.7000000476837158,0,-0.64999997615814209,1,0,0,0.30000001192092896,0.57999998331069946,0.64999997615814209
142,-1.8999999761581421,0,-0.85000002384185791,-1.7000000476837158,0,-0.85000002384185791,-1.7000000476837158,0,-0.64999997615814209,0,-1,0,0.30000001192092896,0.57999998331069946,0.64999997615814209
143,-1.8999999761581421,0,-0.85000002384185791,-1.7000000476837158,0,-0.64999997615814209,-1.8999999761581421,0,-0.64999997615814209,0,-1,0,0.30000001192092896,0.57999998331069946,0.64999997615814209
144,-1.8999999761581421,0.23999999463558197,-0.85000002384185791,-1.8999999761581421,0.23999999463558197,-0.64999997615814209,-1.7000000476837158,0.23999999463558197,-0.64999997615814209,0,1,0,0.30000001192092896,0.57999998331069946,0.64999997615814209
145,-1.8999999761581421,0.23999999463558197,-0.85000002384185791,-1.7000000476837158,0.23999999463558197,-0.64999997615814209,-1.7000000476837158,0.23999999463558197,-0.85000002384185791,0,1,0,0.30000001192092896,0.57999998331069946,0.64999997615814209
146,-1.6000000238418579,0,-0.85000002384185791,-1.6000000238418579,0.23999999463558197,-0.85000002384185791,-1.3999999761581421,0.23999999463558197,-0.85000002384185791,0,0,-1,0.40000000596046448,0.64999997615814209,0.25
147,-1.6000000238418579,0,-0.85000002384185791,-1.3999999761581421,0.23999999463558197,-0.85000002384185791,-1.3999999761581421,0,-0.85000002384185791,0,0,-1,0.40000000596046448,0.64999997615814209,0.25
148,-1.6000000238418579,0,-0.64999997615814209,-1.3999999761581421,0,-0.64999997615814209,-1.3999999761581421,0.23999999463558197,-0.64999997615814209,0,0,1,0.40000000596046448,0.64999997615814209,0.25
149,-1.6000000238418579,0,-0.64999997615814209,-1.3999999761581421,0.23999999463558197,-0.64999997615814209,-1.6000000238418579,0.23999999463558197,-0.64999997615814209,0,0,1,0.40000000596046448,0.64999997615814209,0.25
150,-1.6000000238418579,0,-0.85000002384185791,-1.6000000238418579,0,-0.64999997615814209,-1.6000000238418579,0.23999999463558197,-0.64999997615814209,-1,0,0,0.40000000596046448,0.64999997615814209,0.25
151,-1.6000000238418579,0,-0.85000002384185791,-1.6000000238418579,0.23999999463558197,-0.64999997615814209,-1.6000000238418579,0.23999999463558197,-0.85000002384185791,-1,0,0,0.40000000596046448,0.64999997615814209,0.25
152,-1.3999999761581421,0,-0.85000002384185791,-1.3999999761581421,0.23999999463558197,-0.85000002384185791,-1.3999999761581421,0.23999999463558197,-0.64999997615814209,1,0,0,0.40000000596046448,0.64999997615814209,0.25
153,-1.3999999761581421,0,-0.85000002384185791,-1.3999999761581421,0.23999999463558197,-0.64999997615814209,-1.3999999761581421,0,-0.64999997615814209,1,0,0,0.40000000596046448,0.64999997615814209,0.25
154,-1.6000000238418579,0,-0.85000002384185791,-1.3999999761581421,0,-0.85000002384185791,-1.3999999761581421,0,-0.64999997615814209,0,-1,0,0.40000000596046448,0.64999997615814209,0.25
155,-1.6000000238418579,0,-0.85000002384185791,-1.3999999761581421,0,-0.64999997615814209,-1.6000000238418579,0,-0.64999997615814209,0,-1,0,0.40000000596046448,0.64999997615814209,0.25
156,-1.6000000238418579,0.23999999463558197,-0.85000002384185791,-1.6000000238418579,0.23999999463558197,-0.64999997615814209,-1.3999999761581421,0.23999999463558197,-0.64999997615814209,0,1,0,0.40000000596046448,0.64999997615814209,0.25
157,-1.6000000238418579,0.23999999463558197,-0.85000002384185791,-1.3999999761581421,0.23999999463558197,-0.64999997615814209,-1.3999999761581421,0.23999999463558197,-0.85000002384185791,0,1,0,0.40000000596046448,0.64999997615814209,0.25
158,-1.2999999523162842,0,-0.85000002384185791,-1.2999999523162842,0.23999999463558197,-0.85000002384185791,-1.1000000238418579,0.23999999463558197,-0.85000002384185791,0,0,-1,0.5,0.72000002861022949,0.33000001311302185
159,-1.2999999523162842,0,-0.85000002384185791,-1.1000000238418579,0.23999999463558197,-0.85000002384185791,-1.1000000238418579,0,-0.85000002384185791,0,0,-1,0.5,0.72000002861022949,0.33000001311302185
160,-1.2999999523162842,0,-0.64999997615814209,-1.1000000238418579,0,-0.64999997615814209,-1.1000000238418579,0.23999999463558197,-0.64999997615814209,0,0,1,0.5,0.72000002861022949,0.33000001311302185
161,-1.2999999523162842,0,-0.64999997615814209,-1.1000000238418579,0.23999999463558197,-0.64999997615814209,-1.2999999523162842,0.23999999463558197,-0.64999997615814209,0,0,1,0.5,0.72000002861022949,0.33000001311302185
162,-1.2999999523162842,0,-0.85000002384185791,-1.2999999523162842,0,-0.64999997615814209,-1.2999999523162842,0.23999999463558197,-0.64999997615814209,-1,0,0,0.5,0.72000002861022949,0.33000001311302185
163,-1.2999999523162842,0,-0.85000002384185791,-1.2999999523162842,0.23999999463558197,-0.64999997615814209,-1.2999999523162842,0.23999999463558197,-0.85000002384185791,-1,0,0,0.5,0.72000002861022949,0.33000001311302185
164,-1.1000000238418579,0,-0.85000002384185791,-1.1000000238418579,0.23999999463558197,-0.85000002384185791,-1.1000000238418579,0.23999999463558197,-0.64999997615814209,1,0,0,0.5,0.72000002861022949,0.33000001311302185
165,-1.1000000238418579,0,-0.85000002384185791,-1.1000000238418579,0.23999999463558197,-0.64999997615814209,-1.1000000238418579,0,-0.64999997615814209,1,0,0,0.5,0.72000002861022949,0.33000001311302185
166,-1.2999999523162842,0,-0.85000002384185791,-1.1000000238418579,0,-0.85000002384185791,-1.1000000238418579,0,-0.64999997615814209,0,-1,0,0.5,0.72000002861022949,0.33000001311302185
167,-1.2999999523162842,0,-0.85000002384185791,-1.1000000238418579,0,-0.64999997615814209,-1.2999999523162842,0,-0.64999997615814209,0,-1,0,0.5,0.72000002861022949,0.33000001311302185
168,-1.2999999523162842,0.23999999463558197,-0.85000002384185791,-1.2999999523162842,0.23999999463558197,-0.64999997615814209,-1.1000000238418579,0.23999999463558197,-0.64999997615814209,0,1,0,0.5,0.72000002861022949,0.33000001311302185
169,-1.2999999523162842,0.23999999463558197,-0.85000002384185791,-1.1000000238418579,0.23999999463558197,-0.64999997615814209,-1.1000000238418579,0.23999999463558197,-0.85000002384185791,0,1,0,0.5,0.72000002861022949,0.33000001311302185
170,-3.0999999046325684,0,-0.55000001192092896,-3.0999999046325684,0.23999999463558197,-0.55000001192092896,-2.9000000953674316,0.23999999463558197,-0.55000001192092896,0,0,-1,0.60000002384185791,0.30000001192092896,0.40999999642372131
171,-3.0999999046325684,0,-0.55000001192092896,-2.9000000953674316,0.23999999463558197,-0.55000001192092896,-2.9000000953674316,0,-0.55000001192092896,0,0,-1,0.60000002384185791,0.30000001192092896,0.40999999642372131
172,-3.0999999046325684,0,-0.34999999403953552,-2.9000000953674316,0,-0.34999999403953552,-2.9000000953674316,0.23999999463558197,-0.34999999403953552,0,0,1,0.60000002384185791,0.30000001192092896,0.40999999642372131
173,-3.0999999046325684,0,-0.34999999403953552,-2.9000000953674316,0.23999999463558197,-0.34999999403953552,-3.0999999046325684,0.23999999463558197,-0.34999999403953552,0,0,1,0.60000002384185791,0.30000001192092896,0.40999999642372131
174,-3.0999999046325684,0,-0.55000001192092896,-3.0999999046325684,0,-0.34999999403953552,-3.0999999046325684,0.23999999463558197,-0.34999999403953552,-1,0,0,0.60000002384185791,0.30000001192092896,0.40999999642372131
175,-3.0999999046325684,0,-0.55000001192092896,-3.0999999046325684,0.23999999463558197,-0.34999999403953552,-3.0999999046325684,0.23999999463558197,-0.55000001192092896,-1,0,0,0.60000002384185791,0.30000001192092896,0.40999999642372131
176,-2.9000000953674316,0,-0.55000001192092896,-2.9000000953674316,0.23999999463558197,-0.55000001192092896,-2.9000000953674316,0.23999999463558197,-0.34999999403953552,1,0,0,0.60000002384185791,0.30000001192092896,0.40999999642372131
177,-2.9000000953674316,0,-0.55000001192092896,-2.9000000953674316,0.23999999463558197,-0.34999999403953552,-2.9000000953674316,0,-0.34999999403953552,1,0,0,0.60000002384185791,0.30000001192092896,0.40999999642372131
178,-3.0999999046325684,0,-0.55000001192092896,-2.9000000953674316,0,-0.55000001192092896,-2.9000000953674316,0,-0.34999999403953552,0,-1,0,0.60000002384185791,0.30000001192092896,0.40999999642372131
179,-3.0999999046325684,0,-0.55000001192092896,-2.9000000953674316,0,-0.34999999403953552,-3.0999999046325684,0,-0.34999999403953552,0,-1,0,0.60000002384185791,0.30000001192092896,0.40999999642372131
180,-3.0999999046325684,0.23999999463558197,-0.55000001192092896,-3.0999999046325684,0.23999999463558197,-0.34999999403953552,-2.9000000953674316,0.23999999463558197,-0.34999999403953552,0,1,0,0.60000002384185791,0.30000001192092896,0.40999999642372131
181,-3.0999999046325684,0.23999999463558197,-0.55000001192092896,-2.9000000953674316,0.23999999463558197,-0.34999999403953552,-2.9000000953674316,0.23999999463558197,-0.55000001192092896,0,1,0,0.60000002384185791,0.30000001192092896,0.40999999642372131
182,-2.7999999523162842,0,-0.55000001192092896,-2.7999999523162842,0.23999999463558197,-0.55000001192092896,-2.5999999046325684,0.23999999463558197,-0.55000001192092896,0,0,-1,0.20000000298023224,0.37000000476837158,0.49000000953674316
183,-2.7999999523162842,0,-0.55000001192092896,-2.5999999046325684,0.23999999463558197,-0.55000001192092896,-2.5999999046325684,0,-0.55000001192092896,0,0,-1,0.20000000298023224,0.37000000476837158,0.49000000953674316
184,-2.7999999523162842,0,-0.34999999403953552,-2.5999999046325684,0,-0.34999999403953552,-2.5999999046325684,0.23999999463558197,-0.34999999403953552,0,0,1,0.20000000298023224,0.37000000476837158,0.49000000953674316
185,-2.7999999523162842,0,-0.34999999403953552,-2.5999999046325684,0.23999999463558197,-0.34999999403953552,-2.7999999523162842,0.23999999463558197,-0.34999999403953552,0,0,1,0.20000000298023224,0.37000000476837158,0.49000000953674316
186,-2.7999999523162842,0,-0.55000001192092896,-2.7999999523162842,0,-0.34999999403953552,-2.7999999523162842,0.23999999463558197,-0.34999999403953552,-1,0,0,0.20000000298023224,0.37000000476837158,0.49000000953674316
187,-2.7999999523162842,0,-0.55000001192092896,-2.7999999523162842,0.23999999463558197,-0.34999999403953552,-2.7999999523162842,0.23999999463558197,-0.55000001192092896,-1,0,0,0.20000000298023224,0.37000000476837158,0.49000000953674316
188,-2.5999999046325684,0,-0.55000001192092896,-2.5999999046325684,0.23999999463558197,-0.55000001192092896,-2.5999999046325684,0.23999999463558197,-0.34999999403953552,1,0,0,0.20000000298023224,0.37000000476837158,0.49000000953674316
189,-2.5999999046325684,0,-0.55000001192092896,-2.5999999046325684,0.23999999463558197,-0.34999999403953552,-2.5999999046325684,0,-0.34999999403953552,1,0,0,0.20000000298023224,0.37000000476837158,0.49000000953674316
190,-2.7999999523162842,0,-0.55000001192092896,-2.5999999046325684,0,-0.55000001192092896,-2.5999999046325684,0,-0.34999999403953552,0,-1,0,0.20000000298023224,0.37000000476837158,0.49000000953674316
191,-2.7999999523162842,0,-0.55000001192092896,-2.5999999046325684,0,-0.34999999403953552,-2.7999999523162842,0,-0.34999999403953552,0,-1,0,0.20000000298023224,0.37000000476837158,0.49000000953674316
192,-2.7999999523162842,0.23999999463558197,-0.55000001192092896,-2.7999999523162842,0.23999999463558197,-0.34999999403953552,-2.5999999046325684,0.23999999463558197,-0.34999999403953552,0,1,0,0.20000000298023224,0.37000000476837158,0.49000000953674316
193,-2.7999999523162842,0.23999999463558197,-0.55000001192092896,-2.5999999046325684,0.23999999463558197,-0.34999999403953552,-2.5999999046325684,0.23999999463558197,-0.55000001192092896,0,1,0,0.20000000298023224,0.37000000476837158,0.49000000953674316
194,-2.5,0,-0.55000001192092896,-2.5,0.23999999463558197,-0.55000001192092896,-2.2999999523162842,0.23999999463558197,-0.55000001192092896,0,0,-1,0.30000001192092896,0.43999999761581421,0.56999999284744263
195,-2.5,0,-0.55000001192092896,-2.2999999523162842,0.23999999463558197,-0.55000001192092896,-2.2999999523162842,0,-0.55000001192092896,0,0,-1,0.30000001192092896,0.43999999761581421,0.56999999284744263
196,-2.5,0,-0.34999999403953552,-2.2999999523162842,0,-0.34999999403953552,-2.2999999523162842,0.23999999463558197,-0.34999999403953552,0,0,1,0.30000001192092896,0.43999999761581421,0.56999999284744263
197,-2.5,0,-0.34999999403953552,-2.2999999523162842,0.23999999463558197,-0.34999999403953552,-2.5,0.23999999463558197,-0.34999999403953552,0,0,1,0.30000001192092896,0.43999999761581421,0.56999999284744263
198,-2.5,0,-0.55000001192092896,-2.5,0,-0.34999999403953552,-2.5,0.23999999463558197,-0.34999999403953552,-1,0,0,0.30000001192092896,0.43999999761581421,0.56999999284744263
199,-2.5,0,-0.55000001192092896,-2.5,0.23999999463558197,-0.34999999403953552,-2.5,0.23999999463558197,-0.55000001192092896,-1,0,0,0.30000001192092896,0.43999999761581421,0.56999999284744263
200,-2.2999999523162842,0,-0.55000001192092896,-2.2999999523162842,0.23999999463558197,-0.55000001192092896,-2.2999999523162842,0.23999999463558197,-0.34999999403953552,1,0,0,0.30000001192092896,0.43999999761581421,0.56999999284744263
201,-2.2999999523162842,0,-0.55000001192092896,-2.2999999523162842,0.23999999463558197,-0.34999999403953552,-2.2999999523162842,0,-0.34999999403953552,1,0,0,0.30000001192092896,0.43999999761581421,0.56999999284744263
202,-2.5,0,-0.55000001192092896,-2.2999999523162842,0,-0.55000001192092896,-2.2999999523162842,0,-0.34999999403953552,0,-1,0,0.30000001192092896,0.43999999761581421,0.56999999284744263
203,-2.5,0,-0.55000001192092896,-2.2999999523162842,0,-0.34999999403953552,-2.5,0,-0.34999999403953552,0,-1,0,0.30000001192092896,0.43999999761581421,0.56999999284744263
204,-2.5,0.23999999463558197,-0.55000001192092896,-2.5,0.23999999463558197,-0.34999999403953552,-2.2999999523162842,0.23999999463558197,-0.34999999403953552,0,1,0,0.30000001192092896,0.43999999761581421,0.56999999284744263
205,-2.5,0.23999999463558197,-0.55000001192092896,-2.2999999523162842,0.23999999463558197,-0.34999999403953552,-2.2999999523162842,0.23999999463558197,-0.55000001192092896,0,1,0,0.30000001192092896,0.43999999761581421,0.56999999284744263
206,-2.2000000476837158,0,-0.55000001192092896,-2.2000000476837158,0.23999999463558197,-0.55000001192092896,-2,0.23999999463558197,-0.55000001192092896,0,0,-1,0.40000000596046448,0.50999999046325684,0.64999997615814209
207,-2.2000000476837158,0,-0.55000001192092896,-2,0.23999999463558197,-0.55000001192092896,-2,0,-0.55000001192092896,0,0,-1,0.40000000596046448,0.50999999046325684,0.64999997615814209
208,-2.2000000476837158,0,-0.34999999403953552,-2,0,-0.34999999403953552,-2,0.23999999463558197,-0.34999999403953552,0,0,1,0.40000000596046448,0.50999999046325684,0.64999997615814209
209,-2.2000000476837158,0,-0.34999999403953552,-2,0.23999999463558197,-0.34999999403953552,-2.2000000476837158,0.23999999463558197,-0.34999999403953552,0,0,1,0.40000000596046448,0.50999999046325684,0.64999997615814209
210,-2.2000000476837158,0,-0.55000001192092896,-2.2000000476837158,0,-0.34999999403953552,-2.2000000476837158,0.23999999463558197,-0.34999999403953552,-1,0,0,0.40000000596046448,0.50999999046325684,0.64999997615814209
211,-2.2000000476837158,0,-0.55000001192092896,-2.2000000476837158,0.23999999463558197,-0.34999999403953552,-2.2000000476837158,0.23999999463558197,-0.55000001192092896,-1,0,0,0.40000000596046448,0.50999999046325684,0.64999997615814209
212,-2,0,-0.55000001192092896,-2,0.23999999463558197,-0.55000001192092896,-2,0.23999999463558197,-0.34999999403953552,1,0,0,0.40000000596046448,0.50999999046325684,0.64999997615814209
213,-2,0,-0.55000001192092896,-2,0.23999999463558197,-0.34999999403953552,-2,0,-0.34999999403953552,1,0,0,0.40000000596046448,0.50999999046325684,0.64999997615814209
214,-2.2000000476837158,0,-0.55000001192092896,-2,0,-0.55000001192092896,-2,0,-0.34999999403953552,0,-1,0,0.40000000596046448,0.50999999046325684,0.64999997615814209
215,-2.2000000476837158,0,-0.55000001192092896,-2,0,-0.34999999403953552,-2.2000000476837158,0,-0.34999999403953552,0,-1,0,0.40000000596046448,0.50999999046325684,0.64999997615814209
216,-2.2000000476837158,0.23999999463558197,-0.55000001192092896,-2.2000000476837158,0.23999999463558197,-0.34999999403953552,-2,0.23999999463558197,-0.34999999403953552,0,1,0,0.40000000596046448,0.50999999046325684,0.64999997615814209
217,-2.2000000476837158,0.23999999463558197,-0.55000001192092896,-2,0.23999999463558197,-0.34999999403953552,-2,0.23999999463558197,-0.55000001192092896,0,1,0,0.40000000596046448,0.50999999046325684,0.64999997615814209
218,-1.8999999761581421,0,-0.55000001192092896,-1.8999999761581421,0.23999999463558197,-0.55000001192092896,-1.7000000476837158,0.23999999463558197,-0.55000001192092896,0,0,-1,0.5,0.57999998331069946,0.25
219,-1.8999999761581421,0,-0.55000001192092896,-1.7000000476837158,0.23999999463558197,-0.55000001192092896,-1.7000000476837158,0,-0.55000001192092896,0,0,-1,0.5,0.57999998331069946,0.25
220,-1.8999999761581421,0,-0.34999999403953552,-1.7000000476837158,0,-0.34999999403953552,-1.7000000476837158,0.23999999463558197,-0.34999999403953552,0,0,1,0.5,0.57999998331069946,0.25
221,-1.8999999761581421,0,-0.34999999403953552,-1.7000000476837158,0.23999999463558197,-0.34999999403953552,-1.8999999761581421,0.23999999463558197,-0.34999999403953552,0,0,1,0.5,0.57999998331069946,0.25
222,-1.8999999761581421,0,-0.55000001192092896,-1.8999999761581421,0,-0.34999999403953552,-1.8999999761581421,0.23999999463558197,-0.34999999403953552,-1,0,0,0.5,0.57999998331069946,0.25
223,-1.8999999761581421,0,-0.55000001192092896,-1.8999999761581421,0.23999999463558197,-0.34999999403953552,-1.8999999761581421,0.23999999463558197,-0.55000001192092896,-1,0,0,0.5,0.57999998331069946,0.25
224,-1.7000000476837158,0,-0.55000001192092896,-1.7000000476837158,0.23999999463558197,-0.55000001192092896,-1.7000000476837158,0.23999999463558197,-0.34999999403953552,1,0,0,0.5,0.57999998331069946,0.25
225,-1.7000000476837158,0,-0.55000001192092896,-1.7000000476837158,0.23999999463558197,-0.34999999403953552,-1.7000000476837158,0,-0.34999999403953552,1,0,0,0.5,0.57999998331069946,0.25
226,-1.8999999761581421,0,-0.55000001192092896,-1.7000000476837158,0,-0.55000001192092896,-1.7000000476837158,0,-0.34999999403953552,0,-1,0,0.5,0.57999998331069946,0.25
227,-1.8999999761581421,0,-0.55000001192092896,-1.7000000476837158,0,-0.34999999403953552,-1.8999999761581421,0,-0.34999999403953552,0,-1,0,0.5,0.57999998331069946,0.25
228,-1.8999999761581421,0.23999999463558197,-0.55000001192092896,-1.8999999761581421,0.23999999463558197,-0.34999999403953552,-1.7000000476837158,0.23999999463558197,-0.34999999403953552,0,1,0,0.5,0.57999998331069946,0.25
229,-1.8999999761581421,0.23999999463558197,-0.55000001192092896,-1.7000000476837158,0.23999999463558197,-0.34999999403953552,-1.7000000476837158,0.23999999463558197,-0.55000001192092896,0,1,0,0.5,0.57999998331069946,0.25
230,-1.6000000238418579,0,-0.55000001192092896,-1.6000000238418579,0.23999999463558197,-0.55000001192092896,-1.3999999761581421,0.23999999463558197,-0.55000001192092896,0,0,-1,0.60000002384185791,0.64999997615814209,0.33000001311302185
231,-1.6000000238418579,0,-0.55000001192092896,-1.3999999761581421,0.23999999463558197,-0.55000001192092896,-1.3999999761581421,0,-0.55000001192092896,0,0,-1,0.60000002384185791,0.64999997615814209,0.33000001311302185
232,-1.6000000238418579,0,-0.34999999403953552,-1.3999999761581421,0,-0.34999999403953552,-1.3999999761581421,0.23999999463558197,-0.34999999403953552,0,0,1,0.60000002384185791,0.64999997615814209,0.33000001311302185
233,-1.6000000238418579,0,-0.34999999403953552,-1.3999999761581421,0.23999999463558197,-0.34999999403953552,-1.6000000238418579,0.23999999463558197,-0.34999999403953552,0,0,1,0.60000002384185791,0.64999997615814209,0.33000001311302185
234,-1.6000000238418579,0,-0.55000001192092896,-1.6000000238418579,0,-0.34999999403953552,-1.6000000238418579,0.23999999463558197,-0.34999999403953552,-1,0,0,0.60000002384185791,0.64999997615814209,0.33000001311302185
235,-1.6000000238418579,0,-0.55000001192092896,-1.6000000238418579,0.23999999463558197,-0.34999999403953552,-1.6000000238418579,0.23999999463558197,-0.55000001192092896,-1,0,0,0.60000002384185791,0.64999997615814209,0.33000001311302185
236,-1.3999999761581421,0,-0.55000001192092896,-1.3999999761581421,0.23999999463558197,-0.55000001192092896,-1.3999999761581421,0.23999999463558197,-0.34999999403953552,1,0,0,0.60000002384185791,0.64999997615814209,0.33000001311302185
237,-1.3999999761581421,0,-0.55000001192092896,-1.3999999761581421,0.23999999463558197,-0.34999999403953552,-1.3999999761581421,0,-0.34999999403953552,1,0,0,0.60000002384185791,0.64999997615814209,0.33000001311302185
238,-1.6000000238418579,0,-0.55000001192092896,-1.3999999761581421,0,-0.55000001192092896,-1.3999999761581421,0,-0.34999999403953552,0,-1,0,0.60000002384185791,0.64999997615814209,0.33000001311302185
239,-1.6000000238418579,0,-0.55000001192092896,-1.3999999761581421,0,-0.34999999403953552,-1.6000000238418579,0,-0.34999999403953552,0,-1,0,0.60000002384185791,0.64999997615814209,0.33000001311302185
240,-1.6000000238418579,0.23999999463558197,-0.55000001192092896,-1.6000000238418579,0.23999999463558197,-0.34999999403953552,-1.3999999761581421,0.23999999463558197,-0.34999999403953552,0,1,0,0.60000002384185791,0.64999997615814209,0.33000001311302185
241,-1.6000000238418579,0.23999999463558197,-0.55000001192092896,-1.3999999761581421,0.23999999463558197,-0.34999999403953552,-1.3999999761581421,0.23999999463558197,-0.55000001192092896,0,1,0,0.60000002384185791,0.64999997615814209,0.33000001311302185
242,-1.2999999523162842,0,-0.55000001192092896,-1.2999999523162842,0.23999999463558197,-0.55000001192092896,-1.1000000238418579,0.23999999463558197,-0.55000001192092896,0,0,-1,0.20000000298023224,0.72000002861022949,0.40999999642372131
243,-1.2999999523162842,0,-0.55000001192092896,-1.1000000238418579,0.23999999463558197,-0.55000001192092896,-1.1000000238418579,0,-0.55000001192092896,0,0,-1,0.20000000298023224,0.72000002861022949,0.40999999642372131
244,-1.2999999523162842,0,-0.34999999403953552,-1.1000000238418579,0,-0.34999999403953552,-1.1000000238418579,0.23999999463558197,-0.34999999403953552,0,0,1,0.20000000298023224,0.72000002861022949,0.40999999642372131
245,-1.2999999523162842,0,-0.34999999403953552,-1.1000000238418579,0.23999999463558197,-0.34999999403953552,-1.2999999523162842,0.23999999463558197,-0.34999999403953552,0,0,1,0.20000000298023224,0.72000002861022949,0.40999999642372131
246,-1.2999999523162842,0,-0.55000001192092896,-1.2999999523162842,0,-0.34999999403953552,-1.2999999523162842,0.23999999463558197,-0.34999999403953552,-1,0,0,0.20000000298023224,0.72000002861022949,0.40999999642372131
247,-1.2999999523162842,0,-0.55000001192092896,-1.2999999523162842,0.23999999463558197,-0.34999999403953552,-1.2999999523162842,0.23999999463558197,-0.55000001192092896,-1,0,0,0.20000000298023224,0.72000002861022949,0.40999999642372131
248,-1.1000000238418579,0,-0.55000001192092896,-1.1000000238418579,0.23999999463558197,-0.55000001192092896,-1.1000000238418579,0.23999999463558197,-0.34999999403953552,1,0,0,0.20000000298023224,0.72000002861022949,0.40999999642372131
249,-1.1000000238418579,0,-0.55000001192092896,-1.1000000238418579,0.23999999463558197,-0.34999999403953552,-1.1000000238418579,0,-0.34999999403953552,1,0,0,0.20000000298023224,0.72000002861022949,0.40999999642372131
250,-1.2999999523162842,0,-0.55000001192092896,-1.1000000238418579,0,-0.55000001192092896,-1.1000000238418579,0,-0.34999999403953552,0,-1,0,0.20000000298023224,0.72000002861022949,0.40999999642372131
251,-1.2999999523162842,0,-0.55000001192092896,-1.1000000238418579,0,-0.34999999403953552,-1.2999999523162842,0,-0.34999999403953552,0,-1,0,0.20000000298023224,0.72000002861022949,0.40999999642372131
252,-1.2999999523162842,0.23999999463558197,-0.55000001192092896,-1.2999999523162842,0.23999999463558197,-0.34999999403953552,-1.1000000238418579,0.23999999463558197,-0.34999999403953552,0,1,0,0.20000000298023224,0.72000002861022949,0.40999999642372131
253,-1.2999999523162842,0.23999999463558197,-0.55000001192092896,-1.1000000238418579,0.23999999463558197,-0.34999999403953552,-1.1000000238418579,0.23999999463558197,-0.55000001192092896,0,1,0,0.20000000298023224,0.72000002861022949,0.40999999642372131
254,-3.0999999046325684,0,-0.25,-3.0999999046325684,0.23999999463558197,-0.25,-2.9000000953674316,0.23999999463558197,-0.25,0,0,-1,0.30000001192092896,0.30000001192092896,0.49000000953674316
255,-3.0999999046325684,0,-0.25,-2.9000000953674316,0.23999999463558197,-0.25,-2.9000000953674316,0,-0.25,0,0,-1,0.30000001192092896,0.30000001192092896,0.49000000953674316
256,-3.0999999046325684,0,-0.05000000074505806,-2.9000000953674316,0,-0.05000000074505806,-2.9000000953674316,0.23999999463558197,-0.05000000074505806,0,0,1,0.30000001192092896,0.30000001192092896,0.49000000953674316
257,-3.0999999046325684,0,-0.05000000074505806,-2.9000000953674316,0.23999999463558197,-0.05000000074505806,-3.0999999046325684,0.23999999463558197,-0.05000000074505806,0,0,1,0.30000001192092896,0.30000001192092896,0.49000000953674316
258,-3.0999999046325684,0,-0.25,-3.0999999046325684,0,-0.05000000074505806,-3.0999999046325684,0.23999999463558197,-0.05000000074505806,-1,0,0,0.30000001192092896,0.30000001192092896,0.49000000953674316
259,-3.0999999046325684,0,-0.25,-3.0999999046325684,0.23999999463558197,-0.05000000074505806,-3.0999999046325684,0.23999999463558197,-0.25,-1,0,0,0.30000001192092896,0.30000001192092896,0.49000000953674316
260,-2.9000000953674316,0,-0.25,-2.9000000953674316,0.23999999463558197,-0.25,-2.9000000953674316,0.23999999463558197,-0.05000000074505806,1,0,0,0.30000001192092896,0.30000001192092896,0.49000000953674316
261,-2.9000000953674316,0,-0.25,-2.9000000953674316,0.23999999463558197,-0.05000000074505806,-2.9000000953674316,0,-0.05000000074505806,1,0,0,0.30000001192092896,0.30000001192092896,0.49000000953674316
262,-3.0999999046325684,0,-0.25,-2.9000000953674316,0,-0.25,-2.9000000953674316,0,-0.05000000074505806,0,-1,0,0.30000001192092896,0.30000001192092896,0.49000000953674316
263,-3.0999999046325684,0,-0.25,-2.9000000953674316,0,-0.05000000074505806,-3.0999999046325684,0,-0.05000000074505806,0,-1,0,0.30000001192092896,0.30000001192092896,0.49000000953674316
264,-3.0999999046325684,0.23999999463558197,-0.25,-3.0999999046325684,0.23999999463558197,-0.05000000074505806,-2.9000000953674316,0.23999999463558197,-0.05000000074505806,0,1,0,0.30000001192092896,0.30000001192092896,0.49000000953674316
265,-3.0999999046325684,0.23999999463558197,-0.25,-2.9000000953674316,0.23999999463558197,-0.05000000074505806,-2.9000000953674316,0.23999999463558197,-0.25,0,1,0,0.30000001192092896,0.30000001192092896,0.49000000953674316
266,-2.7999999523162842,0,-0.25,-2.7999999523162842,0.23999999463558197,-0.25,-2.5999999046325684,0.23999999463558197,-0.25,0,0,-1,0.40000000596046448,0.37000000476837158,0.56999999284744263
267,-2.7999999523162842,0,-0.25,-2.5999999046325684,0.23999999463558197,-0.25,-2.5999999046325684,0,-0.25,0,0,-1,0.40000000596046448,0.37000000476837158,0.56999999284744263
268,-2.7999999523162842,0,-0.05000000074505806,-2.5999999046325684,0,-0.05000000074505806,-2.5999999046325684,0.23999999463558197,-0.05000000074505806,0,0,1,0.40000000596046448,0.37000000476837158,0.56999999284744263
269,-2.7999999523162842,0,-0.05000000074505806,-2.5999999046325684,0.23999999463558197,-0.05000000074505806,-2.7999999523162842,0.23999999463558197,-0.05000000074505806,0,0,1,0.40000000596046448,0.37000000476837158,0.56999999284744263
270,-2.7999999523162842,0,-0.25,-2.7999999523162842,0,-0.05000000074505806,-2.7999999523162842,0.23999999463558197,-0.05000000074505806,-1,0,0,0.40000000596046448,0.37000000476837158,0.56999999284744263
271,-2.7999999523162842,0,-0.25,-2.7999999523162842,0.23999999463558197,-0.05000000074505806,-2.7999999523162842,0.23999999463558197,-0.25,-1,0,0,0.40000000596046448,0.37000000476837158,0.56999999284744263
272,-2.5999999046325684,0,-0.25,-2.5999999046325684,0.23999999463558197,-0.25,-2.5999999046325684,0.23999999463558197,-0.05000000074505806,1,0,0,0.40000000596046448,0.37000000476837158,0.56999999284744263
273,-2.5999999046325684,0,-0.25,-2.5999999046325684,0.23999999463558197,-0.05000000074505806,-2.5999999046325684,0,-0.05000000074505806,1,0,0,0.40000000596046448,0.37000000476837158,0.56999999284744263
274,-2.7999999523162842,0,-0.25,-2.5999999046325684,0,-0.25,-2.5999999046325684,0,-0.05000000074505806,0,-1,0,0.40000000596046448,0.37000000476837158,0.56999999284744263
275,-2.7999999523162842,0,-0.25,-2.5999999046325684,0,-0.05000000074505806,-2.7999999523162842,0,-0.05000000074505806,0,-1,0,0.40000000596046448,0.37000000476837158,0.56999999284744263
276,-2.7999999523162842,0.23999999463558197,-0.25,-2.7999999523162842,0.23999999463558197,-0.05000000074505806,-2.5999999046325684,0.23999999463558197,-0.05000000074505806,0,1,0,0.40000000596046448,0.37000000476837158,0.56999999284744263
277,-2.7999999523162842,0.23999999463558197,-0.25,-2.5999999046325684,0.23999999463558197,-0.05000000074505806,-2.5999999046325684,0.23999999463558197,-0.25,0,1,0,0.40000000596046448,0.37000000476837158,0.56999999284744263
278,-2.5,0,-0.25,-2.5,0.23999999463558197,-0.25,-2.2999999523162842,0.23999999463558197,-0.25,0,0,-1,0.5,0.43999999761581421,0.64999997615814209
279,-2.5,0,-0.25,-2.2999999523162842,0.23999999463558197,-0.25,-2.2999999523162842,0,-0.25,0,0,-1,0.5,0.43999999761581421,0.64999997615814209
280,-2.5,0,-0.05000000074505806,-2.2999999523162842,0,-0.05000000074505806,-2.2999999523162842,0.23999999463558197,-0.05000000074505806,0,0,1,0.5,0.43999999761581421,0.64999997615814209
281,-2.5,0,-0.05000000074505806,-2.2999999523162842,0.23999999463558197,-0.05000000074505806,-2.5,0.23999999463558197,-0.05000000074505806,0,0,1,0.5,0.43999999761581421,0.64999997615814209
282,-2.5,0,-0.25,-2.5,0,-0.05000000074505806,-2.5,0.23999999463558197,-0.05000000074505806,-1,0,0,0.5,0.43999999761581421,0.64999997615814209
283,-2.5,0,-0.25,-2.5,0.23999999463558197,-0.05000000074505806,-2.5,0.23999999463558197,-0.25,-1,0,0,0.5,0.43999999761581421,0.64999997615814209
284,-2.2999999523162842,0,-0.25,-2.2999999523162842,0.23999999463558197,-0.25,-2.2999999523162842,0.23999999463558197,-0.05000000074505806,1,0,0,0.5,0.43999999761581421,0.64999997615814209
285,-2.2999999523162842,0,-0.25,-2.2999999523162842,0.23999999463558197,-0.05000000074505806,-2.2999999523162842,0,-0.05000000074505806,1,0,0,0.5,0.43999999761581421,0.64999997615814209
286,-2.5,0,-0.25,-2.2999999523162842,0,-0.25,-2.2999999523162842,0,-0.05000000074505806,0,-1,0,0.5,0.43999999761581421,0.64999997615814209
287,-2.5,0,-0.25,-2.2999999523162842,0,-0.05000000074505806,-2.5,0,-0.05000000074505806,0,-1,0,0.5,0.43999999761581421,0.64999997615814209
288,-2.5,0.23999999463558197,-0.25,-2.5,0.23999999463558197,-0.05000000074505806,-2.2999999523162842,0.23999999463558197,-0.05000000074505806,0,1,0,0.5,0.43999999761581421,0.64999997615814209
289,-2.5,0.23999999463558197,-0.25,-2.2999999523162842,0.23999999463558197,-0.05000000074505806,-2.2999999523162842,0.23999999463558197,-0.25,0,1,0,0.5,0.43999999761581421,0.64999997615814209
290,-2.2000000476837158,0,-0.25,-2.2000000476837158,0.23999999463558197,-0.25,-2,0.23999999463558197,-0.25,0,0,-1,0.60000002384185791,0.50999999046325684,0.25
291,-2.2000000476837158,0,-0.25,-2,0.23999999463558197,-0.25,-2,0,-0.25,0,0,-1,0.60000002384185791,0.50999999046325684,0.25
292,-2.2000000476837158,0,-0.05000000074505806,-2,0,-0.05000000074505806,-2,0.23999999463558197,-0.05000000074505806,0,0,1,0.60000002384185791,0.50999999046325684,0.25
293,-2.2000000476837158,0,-0.05000000074505806,-2,0.23999999463558197,-0.05000000074505806,-2.2000000476837158,0.23999999463558197,-0.05000000074505806,0,0,1,0.60000002384185791,0.50999999046325684,0.25
294,-2.2000000476837158,0,-0.25,-2.2000000476837158,0,-0.05000000074505806,-2.2000000476837158,0.23999999463558197,-0.05000000074505806,-1,0,0,0.60000002384185791,0.50999999046325684,0.25
295,-2.2000000476837158,0,-0.25,-2.2000000476837158,0.23999999463558197,-0.05000000074505806,-2.2000000476837158,0.23999999463558197,-0.25,-1,0,0,0.60000002384185791,0.50999999046325684,0.25
296,-2,0,-0.25,-2,0.23999999463558197,-0.25,-2,0.23999999463558197,-0.05000000074505806,1,0,0,0.60000002384185791,0.50999999046325684,0.25
297,-2,0,-0.25,-2,0.23999999463558197,-0.05000000074505806,-2,0,-0.05000000074505806,1,0,0,0.60000002384185791,0.50999999046325684,0.25
298,-2.2000000476837158,0,-0.25,-2,0,-0.25,-2,0,-0.05000000074505806,0,-1,0,0.60000002384185791,0.50999999046325684,0.25
299,-2.2000000476837158,0,-0.25,-2,0,-0.05000000074505806,-2.2000000476837158,0,-0.05000000074505806,0,-1,0,0.60000002384185791,0.50999999046325684,0.25
300,-2.2000000476837158,0.23999999463558197,-0.25,-2.2000000476837158,0.23999999463558197,-0.05000000074505806,-2,0.23999999463558197,-0.05000000074505806,0,1,0,0.60000002384185791,0.50999999046325684,0.25
301,-2.2000000476837158,0.23999999463558197,-0.25,-2,0.23999999463558197,-0.05000000074505806,-2,0.23999999463558197,-0.25,0,1,0,0.60000002384185791,0.50999999046325684,0.25
302,-1.8999999761581421,0,-0.25,-1.8999999761581421,0.23999999463558197,-0.25,-1.7000000476837158,0.23999999463558197,-0.25,0,0,-1,0.20000000298023224,0.57999998331069946,0.33000001311302185
303,-1.8999999761581421,0,-0.25,-1.7000000476837158,0.23999999463558197,-0.25,-1.7000000476837158,0,-0.25,0,0,-1,0.20000000298023224,0.57999998331069946,0.33000001311302185
304,-1.8999999761581421,0,-0.05000000074505806,-1.7000000476837158,0,-0.05000000074505806,-1.7000000476837158,0.23999999463558197,-0.05000000074505806,0,0,1,0.20000000298023224,0.57999998331069946,0.33000001311302185
305,-1.8999999761581421,0,-0.05000000074505806,-1.7000000476837158,0.23999999463558197,-0.05000000074505806,-1.8999999761581421,0.23999999463558197,-0.05000000074505806,0,0,1,0.20000000298023224,0.57999998331069946,0.33000001311302185
306,-1.8999999761581421,0,-0.25,-1.8999999761581421,0,-0.05000000074505806,-1.8999999761581421,0.23999999463558197,-0.05000000074505806,-1,0,0,0.20000000298023224,0.57999998331069946,0.33000001311302185
307,-1.8999999761581421,0,-0.25,-1.8999999761581421,0.23999999463558197,-0.05000000074505806,-1.8999999761581421,0.23999999463558197,-0.25,-1,0,0,0.20000000298023224,0.57999998331069946,0.33000001311302185
308,-1.7000000476837158,0,-0.25,-1.7000000476837158,0.23999999463558197,-0.25,-1.7000000476837158,0.23999999463558197,-0.05000000074505806,1,0,0,0.20000000298023224,0.57999998331069946,0.33000001311302185
309,-1.7000000476837158,0,-0.25,-1.7000000476837158,0.23999999463558197,-0.05000000074505806,-1.7000000476837158,0,-0.05000000074505806,1,0,0,0.20000000298023224,0.57999998331069946,0.33000001311302185
310,-1.8999999761581421,0,-0.25,-1.7000000476837158,0,-0.25,-1.7000000476837158,0,-0.05000000074505806,0,-1,0,0.20000000298023224,0.57999998331069946,0.33000001311302185
311,-1.8999999761581421,0,-0.25,-1.7000000476837158,0,-0.05000000074505806,-1.8999999761581421,0,-0.05000000074505806,0,-1,0,0.20000000298023224,0.57999998331069946,0.33000001311302185
312,-1.8999999761581421,0.23999999463558197,-0.25,-1.8999999761581421,0.23999999463558197,-0.05000000074505806,-1.7000000476837158,0.23999999463558197,-0.05000000074505806,0,1,0,0.20000000298023224,0.57999998331069946,0.33000001311302185
313,-1.8999999761581421,0.23999999463558197,-0.25,-1.7000000476837158,0.23999999463558197,-0.05000000074505806,-1.7000000476837158,0.23999999463558197,-0.25,0,1,0,0.20000000298023224,0.57999998331069946,0.33000001311302185
314,-1.6000000238418579,0,-0.25,-1.6000000238418579,0.23999999463558197,-0.25,-1.3999999761581421,0.23999999463558197,-0.25,0,0,-1,0.30000001192092896,0.64999997615814209,0.40999999642372131
315,-1.6000000238418579,0,-0.25,-1.3999999761581421,0.23999999463558197,-0.25,-1.3999999761581421,0,-0.25,0,0,-1,0.30000001192092896,0.64999997615814209,0.40999999642372131
316,-1.6000000238418579,0,-0.05000000074505806,-1.3999999761581421,0,-0.05000000074505806,-1.3999999761581421,0.23999999463558197,-0.05000000074505806,0,0,1,0.30000001192092896,0.64999997615814209,0.40999999642372131
317,-1.6000000238418579,0,-0.05000000074505806,-1.3999999761581421,0.23999999463558197,-0.05000000074505806,-1.6000000238418579,0.23999999463558197,-0.05000000074505806,0,0,1,0.30000001192092896,0.64999997615814209,0.40999999642372131
318,-1.6000000238418579,0,-0.25,-1.6000000238418579,0,-0.05000000074505806,-1.6000000238418579,0.23999999463558197,-0.05000000074505806,-1,0,0,0.30000001192092896,0.64999997615814209,0.40999999642372131
319,-1.6000000238418579,0,-0.25,-1.6000000238418579,0.23999999463558197,-0.05000000074505806,-1.6000000238418579,0.23999999463558197,-0.25,-1,0,0,0.30000001192092896,0.64999997615814209,0.40999999642372131
320,-1.3999999761581421,0,-0.25,-1.3999999761581421,0.23999999463558197,-0.25,-1.3999999761581421,0.23999999463558197,-0.05000000074505806,1,0,0,0.30000001192092896,0.64999997615814209,0.40999999642372131
321,-1.3999999761581421,0,-0.25,-1.3999999761581421,0.23999999463558197,-0.05000000074505806,-1.3999999761581421,0,-0.05000000074505806,1,0,0,0.30000001192092896,0.64999997615814209,0.40999999642372131
322,-1.6000000238418579,0,-0.25,-1.3999999761581421,0,-0.25,-1.3999999761581421,0,-0.05000000074505806,0,-1,0,0.30000001192092896,0.64999997615814209,0.40999999642372131
323,-1.6000000238418579,0,-0.25,-1.3999999761581421,0,-0.05000000074505806,-1.6000000238418579,0,-0.05000000074505806,0,-1,0,0.30000001192092896,0.64999997615814209,0.40999999642372131
324,-1.6000000238418579,0.23999999463558197,-0.25,-1.6000000238418579,0.23999999463558197,-0.05000000074505806,-1.3999999761581421,0.23999999463558197,-0.05000000074505806,0,1,0,0.30000001192092896,0.64999997615814209,0.40999999642372131
325,-1.6000000238418579,0.23999999463558197,-0.25,-1.3999999761581421,0.23999999463558197,-0.05000000074505806,-1.3999999761581421,0.23999999463558197,-0.25,0,1,0,0.30000001192092896,0.64999997615814209,0.40999999642372131
326,-1.2999999523162842,0,-0.25,-1.2999999523162842,0.23999999463558197,-0.25,-1.1000000238418579,0.23999999463558197,-0.25,0,0,-1,0.40000000596046448,0.72000002861022949,0.49000000953674316
327,-1.2999999523162842,0,-0.25,-1.1000000238418579,0.23999999463558197,-0.25,-1.1000000238418579,0,-0.25,0,0,-1,0.40000000596046448,0.72000002861022949,0.49000000953674316
328,-1.2999999523162842,0,-0.05000000074505806,-1.1000000238418579,0,-0.05000000074505806,-1.1000000238418579,0.23999999463558197,-0.05000000074505806,0,0,1,0.40000000596046448,0.72000002861022949,0.49000000953674316
329,-1.2999999523162842,0,-0.05000000074505806,-1.1000000238418579,0.23999999463558197,-0.05000000074505806,-1.2999999523162842,0.23999999463558197,-0.05000000074505806,0,0,1,0.40000000596046448,0.72000002861022949,0.49000000953674316
330,-1.2999999523162842,0,-0.25,-1.2999999523162842,0,-0.05000000074505806,-1.2999999523162842,0.23999999463558197,-0.05000000074505806,-1,0,0,0.40000000596046448,0.72000002861022949,0.49000000953674316
331,-1.2999999523162842,0,-0.25,-1.2999999523162842,0.23999999463558197,-0.05000000074505806,-1.2999999523162842,0.23999999463558197,-0.25,-1,0,0,0.40000000596046448,0.72000002861022949,0.49000000953674316
332,-1.1000000238418579,0,-0.25,-1.1000000238418579,0.23999999463558197,-0.25,-1.1000000238418579,0.23999999463558197,-0.05000000074505806,1,0,0,0.40000000596046448,0.72000002861022949,0.49000000953674316
333,-1.1000000238418579,0,-0.25,-1.1000000238418579,0.23999999463558197,-0.05000000074505806,-1.1000000238418579,0,-0.05000000074505806,1,0,0,0.40000000596046448,0.72000002861022949,0.49000000953674316
334,-1.2999999523162842,0,-0.25,-1.1000000238418579,0,-0.25,-1.1000000238418579,0,-0.05000000074505806,0,-1,0,0.40000000596046448,0.72000002861022949,0.49000000953674316
335,-1.2999999523162842,0,-0.25,-1.1000000238418579,0,-0.05000000074505806,-1.2999999523162842,0,-0.05000000074505806,0,-1,0,0.40000000596046448,0.72000002861022949,0.49000000953674316
336,-1.2999999523162842,0.23999999463558197,-0.25,-1.2999999523162842,0.23999999463558197,-0.05000000074505806,-1.1000000238418579,0.23999999463558197,-0.05000000074505806,0,1,0,0.40000000596046448,0.72000002861022949,0.49000000953674316
337,-1.2999999523162842,0.23999999463558197,-0.25,-1.1000000238418579,0.23999999463558197,-0.05000000074505806,-1.1000000238418579,0.23999999463558197,-0.25,0,1,0,0.40000000596046448,0.72000002861022949,0.49000000953674316
338,-3.0999999046325684,0,0.05000000074505806,-3.0999999046325684,0.23999999463558197,0.05000000074505806,-2.9000000953674316,0.23999999463558197,0.05000000074505806,0,0,-1,0.5,0.30000001192092896,0.56999999284744263
339,-3.0999999046325684,0,0.05000000074505806,-2.9000000953674316,0.23999999463558197,0.05000000074505806,-2.9000000953674316,0,0.05000000074505806,0,0,-1,0.5,0.30000001192092896,0.56999999284744263
340,-3.0999999046325684,0,0.25,-2.9000000953674316,0,0.25,-2.9000000953674316,0.23999999463558197,0.25,0,0,1,0.5,0.30000001192092896,0.56999999284744263
341,-3.0999999046325684,0,0.25,-2.9000000953674316,0.23999999463558197,0.25,-3.0999999046325684,0.23999999463558197,0.25,0,0,1,0.5,0.30000001192092896,0.56999999284744263
342,-3.0999999046325684,0,0.05000000074505806,-3.0999999046325684,0,0.25,-3.0999999046325684,0.23999999463558197,0.25,-1,0,0,0.5,0.30000001192092896,0.56999999284744263
343,-3.0999999046325684,0,0.05000000074505806,-3.0999999046325684,0.23999999463558197,0.25,-3.0999999046325684,0.23999999463558197,0.05000000074505806,-1,0,0,0.5,0.30000001192092896,0.56999999284744263
344,-2.9000000953674316,0,0.05000000074505806,-2.9000000953674316,0.23999999463558197,0.05000000074505806,-2.9000000953674316,0.23999999463558197,0.25,1,0,0,0.5,0.30000001192092896,0.56999999284744263
345,-2.9000000953674316,0,0.05000000074505806,-2.9000000953674316,0.23999999463558197,0.25,-2.9000000953674316,0,0.25,1,0,0,0.5,0.30000001192092896,0.56999999284744263
346,-3.0999999046325684,0,0.05000000074505806,-2.9000000953674316,0,0.05000000074505806,-2.9000000953674316,0,0.25,0,-1,0,0.5,0.30000001192092896,0.56999999284744263
347,-3.0999999046325684,0,0.05000000074505806,-2.9000000953674316,0,0.25,-3.0999999046325684,0,0.25,0,-1,0,0.5,0.30000001192092896,0.56999999284744263
348,-3.0999999046325684,0.23999999463558197,0.05000000074505806,-3.0999999046325684,0.23999999463558197,0.25,-2.9000000953674316,0.23999999463558197,0.25,0,1,0,0.5,0.30000001192092896,0.56999999284744263
349,-3.0999999046325684,0.23999999463558197,0.05000000074505806,-2.9000000953674316,0.23999999463558197,0.25,-2.9000000953674316,0.23999999463558197,0.05000000074505806,0,1,0,0.5,0.30000001192092896,0.56999999284744263
350,-2.7999999523162842,0,0.05000000074505806,-2.7999999523162842,0.23999999463558197,0.05000000074505806,-2.5999999046325684,0.23999999463558197,0.05000000074505806,0,0,-1,0.60000002384185791,0.37000000476837158,0.64999997615814209
351,-2.7999999523162842,0,0.05000000074505806,-2.5999999046325684,0.23999999463558197,0.05000000074505806,-2.5999999046325684,0,0.05000000074505806,0,0,-1,0.60000002384185791,0.37000000476837158,0.64999997615814209
352,-2.7999999523162842,0,0.25,-2.5999999046325684,0,0.25,-2.5999999046325684,0.23999999463558197,0.25,0,0,1,0.60000002384185791,0.37000000476837158,0.64999997615814209
353,-2.7999999523162842,0,0.25,-2.5999999046325684,0.23999999463558197,0.25,-2.7999999523162842,0.23999999463558197,0.25,0,0,1,0.60000002384185791,0.37000000476837158,0.64999997615814209
354,-2.7999999523162842,0,0.05000000074505806,-2.7999999523162842,0,0.25,-2.7999999523162842,0.23999999463558197,0.25,-1,0,0,0.60000002384185791,0.37000000476837158,0.64999997615814209
355,-2.7999999523162842,0,0.05000000074505806,-2.7999999523162842,0.23999999463558197,0.25,-2.7999999523162842,0.23999999463558197,0.05000000074505806,-1,0,0,0.60000002384185791,0.37000000476837158,0.64999997615814209
356,-2.5999999046325684,0,0.05000000074505806,-2.5999999046325684,0.23999999463558197,0.05000000074505806,-2.5999999046325684,0.23999999463558197,0.25,1,0,0,0.60000002384185791,0.37000000476837158,0.64999997615814209
357,-2.5999999046325684,0,0.05000000074505806,-2.5999999046325684,0.23999999463558197,0.25,-2.5999999046325684,0,0.25,1,0,0,0.60000002384185791,0.37000000476837158,0.64999997615814209
358,-2.7999999523162842,0,0.05000000074505806,-2.5999999046325684,0,0.05000000074505806,-2.5999999046325684,0,0.25,0,-1,0,0.60000002384185791,0.37000000476837158,0.64999997615814209
359,-2.7999999523162842,0,0.05000000074505806,-2.5999999046325684,0,0.25,-2.7999999523162842,0,0.25,0,-1,0,0.60000002384185791,0.37000000476837158,0.64999997615814209
360,-2.7999999523162842,0.23999999463558197,0.05000000074505806,-2.7999999523162842,0.23999999463558197,0.25,-2.5999999046325684,0.23999999463558197,0.25,0,1,0,0.60000002384185791,0.37000000476837158,0.64999997615814209
361,-2.7999999523162842,0.23999999463558197,0.05000000074505806,-2.5999999046325684,0.23999999463558197,0.25,-2.5999999046325684,0.23999999463558197,0.05000000074505806,0,1,0,0.60000002384185791,0.37000000476837158,0.64999997615814209
362,-2.5,0,0.05000000074505806,-2.5,0.23999999463558197,0.05000000074505806,-2.2999999523162842,0.23999999463558197,0.05000000074505806,0,0,-1,0.20000000298023224,0.43999999761581421,0.25
363,-2.5,0,0.05000000074505806,-2.2999999523162842,0.23999999463558197,0.05000000074505806,-2.2999999523162842,0,0.05000000074505806,0,0,-1,0.20000000298023224,0.43999999761581421,0.25
364,-2.5,0,0.25,-2.2999999523162842,0,0.25,-2.2999999523162842,0.23999999463558197,0.25,0,0,1,0.20000000298023224,0.43999999761581421,0.25
365,-2.5,0,0.25,-2.2999999523162842,0.23999999463558197,0.25,-2.5,0.23999999463558197,0.25,0,0,1,0.20000000298023224,0.43999999761581421,0.25
366,-2.5,0,0.05000000074505806,-2.5,0,0.25,-2.5,0.23999999463558197,0.25,-1,0,0,0.20000000298023224,0.43999999761581421,0.25
367,-2.5,0,0.05000000074505806,-2.5,0.23999999463558197,0.25,-2.5,0.23999999463558197,0.05000000074505806,-1,0,0,0.20000000298023224,0.43999999761581421,0.25
368,-2.2999999523162842,0,0.05000000074505806,-2.2999999523162842,0.23999999463558197,0.05000000074505806,-2.2999999523162842,0.23999999463558197,0.25,1,0,0,0.20000000298023224,0.43999999761581421,0.25
369,-2.2999999523162842,0,0.05000000074505806,-2.2999999523162842,0.23999999463558197,0.25,-2.2999999523162842,0,0.25,1,0,0,0.20000000298023224,0.43999999761581421,0.25
370,-2.5,0,0.05000000074505806,-2.2999999523162842,0,0.05000000074505806,-2.2999999523162842,0,0.25,0,-1,0,0.20000000298023224,0.43999999761581421,0.25
371,-2.5,0,0.05000000074505806,-2.2999999523162842,0,0.25,-2.5,0,0.25,0,-1,0,0.20000000298023224,0.43999999761581421,0.25
372,-2.5,0.23999999463558197,0.05000000074505806,-2.5,0.23999999463558197,0.25,-2.2999999523162842,0.23999999463558197,0.25,0,1,0,0.20000000298023224,0.43999999761581421,0.25
373,-2.5,0.23999999463558197,0.05000000074505806,-2.2999999523162842,0.23999999463558197,0.25,-2.2999999523162842,0.23999999463558197,0.05000000074505806,0,1,0,0.20000000298023224,0.43999999761581421,0.25
374,-2.2000000476837158,0,0.05000000074505806,-2.2000000476837158,0.23999999463558197,0.05000000074505806,-2,0.23999999463558197,0.05000000074505806,0,0,-1,0.30000001192092896,0.50999999046325684,0.33000001311302185
375,-2.2000000476837158,0,0.05000000074505806,-2,0.23999999463558197,0.05000000074505806,-2,0,0.05000000074505806,0,0,-1,0.30000001192092896,0.50999999046325684,0.33000001311302185
376,-2.2000000476837158,0,0.25,-2,0,0.25,-2,0.23999999463558197,0.25,0,0,1,0.30000001192092896,0.50999999046325684,0.33000001311302185
377,-2.2000000476837158,0,0.25,-2,0.23999999463558197,0.25,-2.2000000476837158,0.23999999463558197,0.25,0,0,1,0.30000001192092896,0.50999999046325684,0.33000001311302185
378,-2.2000000476837158,0,0.05000000074505806,-2.2000000476837158,0,0.25,-2.2000000476837158,0.23999999463558197,0.25,-1,0,0,0.30000001192092896,0.50999999046325684,0.33000001311302185
379,-2.2000000476837158,0,0.05000000074505806,-2.2000000476837158,0.23999999463558197,0.25,-2.2000000476837158,0.23999999463558197,0.05000000074505806,-1,0,0,0.30000001192092896,0.50999999046325684,0.33000001311302185
380,-2,0,0.05000000074505806,-2,0.23999999463558197,0.05000000074505806,-2,0.23999999463558197,0.25,1,0,0,0.30000001192092896,0.50999999046325684,0.33000001311302185
381,-2,0,0.05000000074505806,-2,0.23999999463558197,0.25,-2,0,0.25,1,0,0,0.30000001192092896,0.50999999046325684,0.33000001311302185
382,-2.2000000476837158,0,0.05000000074505806,-2,0,0.05000000074505806,-2,0,0.25,0,-1,0,0.30000001192092896,0.50999999046325684,0.33000001311302185
383,-2.2000000476837158,0,0.05000000074505806,-2,0,0.25,-2.2000000476837158,0,0.25,0,-1,0,0.30000001192092896,0.50999999046325684,0.33000001311302185
384,-2.2000000476837158,0.23999999463558197,0.05000000074505806,-2.2000000476837158,0.23999999463558197,0.25,-2,0.23999999463558197,0.25,0,1,0,0.30000001192092896,0.50999999046325684,0.33000001311302185
385,-2.2000000476837158,0.23999999463558197,0.05000000074505806,-2,0.23999999463558197,0.25,-2,0.23999999463558197,0.05000000074505806,0,1,0,0.30000001192092896,0.50999999046325684,0.33000001311302185
386,-1.8999999761581421,0,0.05000000074505806,-1.8999999761581421,0.23999999463558197,0.05000000074505806,-1.7000000476837158,0.23999999463558197,0.05000000074505806,0,0,-1,0.40000000596046448,0.57999998331069946,0.40999999642372131
387,-1.8999999761581421,0,0.05000000074505806,-1.7000000476837158,0.23999999463558197,0.05000000074505806,-1.7000000476837158,0,0.05000000074505806,0,0,-1,0.40000000596046448,0.57999998331069946,0.40999999642372131
388,-1.8999999761581421,0,0.25,-1.7000000476837158,0,0.25,-1.7000000476837158,0.23999999463558197,0.25,0,0,1,0.40000000596046448,0.57999998331069946,0.40999999642372131
389,-1.8999999761581421,0,0.25,-1.7000000476837158,0.23999999463558197,0.25,-1.8999999761581421,0.23999999463558197,0.25,0,0,1,0.40000000596046448,0.57999998331069946,0.40999999642372131
390,-1.8999999761581421,0,0.05000000074505806,-1.8999999761581421,0,0.25,-1.8999999761581421,0.23999999463558197,0.25,-1,0,0,0.40000000596046448,0.57999998331069946,0.40999999642372131
391,-1.8999999761581421,0,0.05000000074505806,-1.8999999761581421,0.23999999463558197,0.25,-1.8999999761581421,0.23999999463558197,0.05000000074505806,-1,0,0,0.40000000596046448,0.57999998331069946,0.40999999642372131
392,-1.7000000476837158,0,0.05000000074505806,-1.7000000476837158,0.23999999463558197,0.05000000074505806,-1.7000000476837158,0.23999999463558197,0.25,1,0,0,0.40000000596046448,0.57999998331069946,0.40999999642372131
393,-1.7000000476837158,0,0.05000000074505806,-1.7000000476837158,0.23999999463558197,0.25,-1.7000000476837158,0,0.25,1,0,0,0.40000000596046448,0.57999998331069946,0.40999999642372131
394,-1.8999999761581421,0,0.05000000074505806,-1.7000000476837158,0,0.05000000074505806,-1.7000000476837158,0,0.25,0,-1,0,0.40000000596046448,0.57999998331069946,0.40999999642372131
395,-1.8999999761581421,0,0.05000000074505806,-1.7000000476837158,0,0.25,-1.8999999761581421,0,0.25,0,-1,0,0.40000000596046448,0.57999998331069946,0.40999999642372131
396,-1.8999999761581421,0.23999999463558197,0.05000000074505806,-1.8999999761581421,0.23999999463558197,0.25,-1.7000000476837158,0.23999999463558197,0.25,0,1,0,0.40000000596046448,0.57999998331069946,0.40999999642372131
397,-1.8999999761581421,0.23999999463558197,0.05000000074505806,-1.7000000476837158,0.23999999463558197,0.25,-1.7000000476837158,0.23999999463558197,0.05000000074505806,0,1,0,0.40000000596046448,0.57999998331069946,0.40999999642372131
398,-1.6000000238418579,0,0.05000000074505806,-1.6000000238418579,0.23999999463558197,0.05000000074505806,-1.3999999761581421,0.23999999463558197,0.05000000074505806,0,0,-1,0.5,0.64999997615814209,0.49000000953674316
399,-1.6000000238418579,0,0.05000000074505806,-1.3999999761581421,0.23999999463558197,0.05000000074505806,-1.3999999761581421,0,0.05000000074505806,0,0,-1,0.5,0.64999997615814209,0.49000000953674316
400,-1.6000000238418579,0,0.25,-1.3999999761581421,0,0.25,-1.3999999761581421,0.23999999463558197,0.25,0,0,1,0.5,0.64999997615814209,0.49000000953674316
401,-1.6000000238418579,0,0.25,-1.3999999761581421,0.23999999463558197,0.25,-1.6000000238418579,0.23999999463558197,0.25,0,0,1,0.5,0.64999997615814209,0.49000000953674316
402,-1.6000000238418579,0,0.05000000074505806,-1.6000000238418579,0,0.25,-1.6000000238418579,0.23999999463558197,0.25,-1,0,0,0.5,0.64999997615814209,0.49000000953674316
403,-1.6000000238418579,0,0.05000000074505806,-1.6000000238418579,0.23999999463558197,0.25,-1.6000000238418579,0.23999999463558197,0.05000000074505806,-1,0,0,0.5,0.64999997615814209,0.49000000953674316
404,-1.3999999761581421,0,0.05000000074505806,-1.3999999761581421,0.23999999463558197,0.05000000074505806,-1.3999999761581421,0.23999999463558197,0.25,1,0,0,0.5,0.64999997615814209,0.49000000953674316
405,-1.3999999761581421,0,0.05000000074505806,-1.3999999761581421,0.23999999463558197,0.25,-1.3999999761581421,0,0.25,1,0,0,0.5,0.64999997615814209,0.49000000953674316
406,-1.6000000238418579,0,0.05000000074505806,-1.3999999761581421,0,0.05000000074505806,-1.3999999761581421,0,0.25,0,-1,0,0.5,0.64999997615814209,0.49000000953674316
407,-1.6000000238418579,0,0.05000000074505806,-1.3999999761581421,0,0.25,-1.6000000238418579,0,0.25,0,-1,0,0.5,0.64999997615814209,0.49000000953674316
408,-1.6000000238418579,0.23999999463558197,0.05000000074505806,-1.6000000238418579,0.23999999463558197,0.25,-1.3999999761581421,0.23999999463558197,0.25,0,1,0,0.5,0.64999997615814209,0.49000000953674316
409,-1.6000000238418579,0.23999999463558197,0.05000000074505806,-1.3999999761581421,0.23999999463558197,0.25,-1.3999999761581421,0.23999999463558197,0.05000000074505806,0,1,0,0.5,0.64999997615814209,0.49000000953674316
410,-1.2999999523162842,0,0.05000000074505806,-1.2999999523162842,0.23999999463558197,0.05000000074505806,-1.1000000238418579,0.23999999463558197,0.05000000074505806,0,0,-1,0.60000002384185791,0.72000002861022949,0.56999999284744263
411,-1.2999999523162842,0,0.05000000074505806,-1.1000000238418579,0.23999999463558197,0.05000000074505806,-1.1000000238418579,0,0.05000000074505806,0,0,-1,0.60000002384185791,0.72000002861022949,0.56999999284744263
412,-1.2999999523162842,0,0.25,-1.1000000238418579,0,0.25,-1.1000000238418579,0.23999999463558197,0.25,0,0,1,0.60000002384185791,0.72000002861022949,0.56999999284744263
413,-1.2999999523162842,0,0.25,-1.1000000238418579,0.23999999463558197,0.25,-1.2999999523162842,0.23999999463558197,0.25,0,0,1,0.60000002384185791,0.72000002861022949,0.56999999284744263
414,-1.2999999523162842,0,0.05000000074505806,-1.2999999523162842,0,0.25,-1.2999999523162842,0.23999999463558197,0.25,-1,0,0,0.60000002384185791,0.72000002861022949,0.56999999284744263
415,-1.2999999523162842,0,0.05000000074505806,-1.2999999523162842,0.23999999463558197,0.25,-1.2999999523162842,0.23999999463558197,0.05000000074505806,-1,0,0,0.60000002384185791,0.72000002861022949,0.56999999284744263
416,-1.1000000238418579,0,0.05000000074505806,-1.1000000238418579,0.23999999463558197,0.05000000074505806,-1.1000000238418579,0.23999999463558197,0.25,1,0,0,0.60000002384185791,0.72000002861022949,0.56999999284744263
417,-1.1000000238418579,0,0.05000000074505806,-1.1000000238418579,0.23999999463558197,0.25,-1.1000000238418579,0,0.25,1,0,0,0.60000002384185791,0.72000002861022949,0.56999999284744263
418,-1.2999999523162842,0,0.05000000074505806,-1.1000000238418579,0,0.05000000074505806,-1.1000000238418579,0,0.25,0,-1,0,0.60000002384185791,0.72000002861022949,0.56999999284744263
419,-1.2999999523162842,0,0.05000000074505806,-1.1000000238418579,0,0.25,-1.2999999523162842,0,0.25,0,-1,0,0.60000002384185791,0.72000002861022949,0.56999999284744263
420,-1.2999999523162842,0.23999999463558197,0.05000000074505806,-1.2999999523162842,0.23999999463558197,0.25,-1.1000000238418579,0.23999999463558197,0.25,0,1,0,0.60000002384185791,0.72000002861022949,0.56999999284744263
421,-1.2999999523162842,0.23999999463558197,0.05000000074505806,-1.1000000238418579,0.23999999463558197,0.25,-1.1000000238418579,0.23999999463558197,0.05000000074505806,0,1,0,0.60000002384185791,0.72000002861022949,0.56999999284744263
422,-3.0999999046325684,0,0.34999999403953552,-3.0999999046325684,0.23999999463558197,0.34999999403953552,-2.9000000953674316,0.23999999463558197,0.34999999403953552,0,0,-1,0.20000000298023224,0.30000001192092896,0.64999997615814209
423,-3.0999999046325684,0,0.34999999403953552,-2.9000000953674316,0.23999999463558197,0.34999999403953552,-2.9000000953674316,0,0.34999999403953552,0,0,-1,0.20000000298023224,0.30000001192092896,0.64999997615814209
424,-3.0999999046325684,0,0.55000001192092896,-2.9000000953674316,0,0.55000001192092896,-2.9000000953674316,0.23999999463558197,0.55000001192092896,0,0,1,0.20000000298023224,0.30000001192092896,0.64999997615814209
425,-3.0999999046325684,0,0.55000001192092896,-2.9000000953674316,0.23999999463558197,0.55000001192092896,-3.0999999046325684,0.23999999463558197,0.55000001192092896,0,0,1,0.20000000298023224,0.30000001192092896,0.64999997615814209
426,-3.0999999046325684,0,0.34999999403953552,-3.0999999046325684,0,0.55000001192092896,-3.0999999046325684,0.23999999463558197,0.55000001192092896,-1,0,0,0.20000000298023224,0.30000001192092896,0.64999997615814209
427,-3.0999999046325684,0,0.34999999403953552,-3.0999999046325684,0.23999999463558197,0.55000001192092896,-3.0999999046325684,0.23999999463558197,0.34999999403953552,-1,0,0,0.20000000298023224,0.30000001192092896,0.64999997615814209
428,-2.9000000953674316,0,0.34999999403953552,-2.9000000953674316,0.23999999463558197,0.34999999403953552,-2.9000000953674316,0.23999999463558197,0.55000001192092896,1,0,0,0.20000000298023224,0.30000001192092896,0.64999997615814209
429,-2.9000000953674316,0,0.34999999403953552,-2.9000000953674316,0.23999999463558197,0.55000001192092896,-2.9000000953674316,0,0.55000001192092896,1,0,0,0.20000000298023224,0.30000001192092896,0.64999997615814209
430,-3.0999999046325684,0,0.34999999403953552,-2.9000000953674316,0,0.34999999403953552,-2.9000000953674316,0,0.55000001192092896,0,-1,0,0.20000000298023224,0.30000001192092896,0.64999997615814209
431,-3.0999999046325684,0,0.34999999403953552,-2.9000000953674316,0,0.55000001192092896,-3.0999999046325684,0,0.55000001192092896,0,-1,0,0.20000000298023224,0.30000001192092896,0.64999997615814209
432,-3.0999999046325684,0.23999999463558197,0.34999999403953552,-3.0999999046325684,0.23999999463558197,0.55000001192092896,-2.9000000953674316,0.23999999463558197,0.55000001192092896,0,1,0,0.20000000298023224,0.30000001192092896,0.64999997615814209
433,-3.0999999046325684,0.23999999463558197,0.34999999403953552,-2.9000000953674316,0.23999999463558197,0.55000001192092896,-2.9000000953674316,0.23999999463558197,0.34999999403953552,0,1,0,0.20000000298023224,0.30000001192092896,0.64999997615814209
434,-2.7999999523162842,0,0.34999999403953552,-2.7999999523162842,0.23999999463558197,0.34999999403953552,-2.5999999046325684,0.23999999463558197,0.34999999403953552,0,0,-1,0.30000001192092896,0.37000000476837158,0.25
435,-2.7999999523162842,0,0.34999999403953552,-2.5999999046325684,0.23999999463558197,0.34999999403953552,-2.5999999046325684,0,0.34999999403953552,0,0,-1,0.30000001192092896,0.37000000476837158,0.25
436,-2.7999999523162842,0,0.55000001192092896,-2.5999999046325684,0,0.55000001192092896,-2.5999999046325684,0.23999999463558197,0.55000001192092896,0,0,1,0.30000001192092896,0.37000000476837158,0.25
437,-2.7999999523162842,0,0.55000001192092896,-2.5999999046325684,0.23999999463558197,0.55000001192092896,-2.7999999523162842,0.23999999463558197,0.55000001192092896,0,0,1,0.30000001192092896,0.37000000476837158,0.25
438,-2.7999999523162842,0,0.34999999403953552,-2.7999999523162842,0,0.55000001192092896,-2.7999999523162842,0.23999999463558197,0.55000001192092896,-1,0,0,0.30000001192092896,0.37000000476837158,0.25
439,-2.7999999523162842,0,0.34999999403953552,-2.7999999523162842,0.23999999463558197,0.55000001192092896,-2.7999999523162842,0.23999999463558197,0.34999999403953552,-1,0,0,0.30000001192092896,0.37000000476837158,0.25
440,-2.5999999046325684,0,0.34999999403953552,-2.5999999046325684,0.23999999463558197,0.34999999403953552,-2.5999999046325684,0.23999999463558197,0.55000001192092896,1,0,0,0.30000001192092896,0.37000000476837158,0.25
441,-2.5999999046325684,0,0.34999999403953552,-2.5999999046325684,0.23999999463558197,0.55000001192092896,-2.5999999046325684,0,0.55000001192092896,1,0,0,0.30000001192092896,0.37000000476837158,0.25
442,-2.7999999523162842,0,0.34999999403953552,-2.5999999046325684,0,0.34999999403953552,-2.5999999046325684,0,0.55000001192092896,0,-1,0,0.30000001192092896,0.37000000476837158,0.25
443,-2.7999999523162842,0,0.34999999403953552,-2.5999999046325684,0,0.55000001192092896,-2.7999999523162842,0,0.55000001192092896,0,-1,0,0.30000001192092896,0.37000000476837158,0.25
444,-2.7999999523162842,0.23999999463558197,0.34999999403953552,-2.7999999523162842,0.23999999463558197,0.55000001192092896,-2.5999999046325684,0.23999999463558197,0.55000001192092896,0,1,0,0.30000001192092896,0.37000000476837158,0.25
445,-2.7999999523162842,0.23999999463558197,0.34999999403953552,-2.5999999046325684,0.23999999463558197,0.55000001192092896,-2.5999999046325684,0.23999999463558197,0.34999999403953552,0,1,0,0.30000001192092896,0.37000000476837158,0.25
446,-2.5,0,0.34999999403953552,-2.5,0.23999999463558197,0.34999999403953552,-2.2999999523162842,0.23999999463558197,0.34999999403953552,0,0,-1,0.40000000596046448,0.43999999761581421,0.33000001311302185
447,-2.5,0,0.34999999403953552,-2.2999999523162842,0.23999999463558197,0.34999999403953552,-2.2999999523162842,0,0.34999999403953552,0,0,-1,0.40000000596046448,0.43999999761581421,0.33000001311302185
448,-2.5,0,0.55000001192092896,-2.2999999523162842,0,0.55000001192092896,-2.2999999523162842,0.23999999463558197,0.55000001192092896,0,0,1,0.40000000596046448,0.43999999761581421,0.33000001311302185
449,-2.5,0,0.55000001192092896,-2.2999999523162842,0.23999999463558197,0.55000001192092896,-2.5,0.23999999463558197,0.55000001192092896,0,0,1,0.40000000596046448,0.43999999761581421,0.33000001311302185
450,-2.5,0,0.34999999403953552,-2.5,0,0.55000001192092896,-2.5,0.23999999463558197,0.55000001192092896,-1,0,0,0.40000000596046448,0.43999999761581421,0.33000001311302185
451,-2.5,0,0.34999999403953552,-2.5,0.23999999463558197,0.55000001192092896,-2.5,0.23999999463558197,0.34999999403953552,-1,0,0,0.40000000596046448,0.43999999761581421,0.33000001311302185
452,-2.2999999523162842,0,0.34999999403953552,-2.2999999523162842,0.23999999463558197,0.34999999403953552,-2.2999999523162842,0.23999999463558197,0.55000001192092896,1,0,0,0.40000000596046448,0.43999999761581421,0.33000001311302185
453,-2.2999999523162842,0,0.34999999403953552,-2.2999999523162842,0.23999999463558197,0.55000001192092896,-2.2999999523162842,0,0.55000001192092896,1,0,0,0.40000000596046448,0.43999999761581421,0.33000001311302185
454,-2.5,0,0.34999999403953552,-2.2999999523162842,0,0.34999999403953552,-2.2999999523162842,0,0.55000001192092896,0,-1,0,0.40000000596046448,0.43999999761581421,0.33000001311302185
455,-2.5,0,0.34999999403953552,-2.2999999523162842,0,0.55000001192092896,-2.5,0,0.55000001192092896,0,-1,0,0.40000000596046448,0.43999999761581421,0.33000001311302185
456,-2.5,0.23999999463558197,0.34999999403953552,-2.5,0.23999999463558197,0.55000001192092896,-2.2999999523162842,0.23999999463558197,0.55000001192092896,0,1,0,0.40000000596046448,0.43999999761581421,0.33000001311302185
457,-2.5,0.23999999463558197,0.34999999403953552,-2.2999999523162842,0.23999999463558197,0.55000001192092896,-2.2999999523162842,0.23999999463558197,0.34999999403953552,0,1,0,0.40000000596046448,0.43999999761581421,0.33000001311302185
458,-2.2000000476837158,0,0.34999999403953552,-2.2000000476837158,0.23999999463558197,0.34999999403953552,-2,0.23999999463558197,0.34999999403953552,0,0,-1,0.5,0.50999999046325684,0.40999999642372131
459,-2.2000000476837158,0,0.34999999403953552,-2,0.23999999463558197,0.34999999403953552,-2,0,0.34999999403953552,0,0,-1,0.5,0.50999999046325684,0.40999999642372131
460,-2.2000000476837158,0,0.55000001192092896,-2,0,0.55000001192092896,-2,0.23999999463558197,0.55000001192092896,0,0,1,0.5,0.50999999046325684,0.40999999642372131
461,-2.2000000476837158,0,0.55000001192092896,-2,0.23999999463558197,0.55000001192092896,-2.2000000476837158,0.23999999463558197,0.55000001192092896,0,0,1,0.5,0.50999999046325684,0.40999999642372131
462,-2.2000000476837158,0,0.34999999403953552,-2.2000000476837158,0,0.55000001192092896,-2.2000000476837158,0.23999999463558197,0.55000001192092896,-1,0,0,0.5,0.50999999046325684,0.40999999642372131
463,-2.2000000476837158,0,0.34999999403953552,-2.2000000476837158,0.23999999463558197,0.55000001192092896,-2.2000000476837158,0.23999999463558197,0.34999999403953552,-1,0,0,0.5,0.50999999046325684,0.40999999642372131
464,-2,0,0.34999999403953552,-2,0.23999999463558197,0.34999999403953552,-2,0.23999999463558197,0.55000001192092896,1,0,0,0.5,0.50999999046325684,0.40999999642372131
465,-2,0,0.34999999403953552,-2,0.23999999463558197,0.55000001192092896,-2,0,0.55000001192092896,1,0,0,0.5,0.50999999046325684,0.40999999642372131
466,-2.2000000476837158,0,0.34999999403953552,-2,0,0.34999999403953552,-2,0,0.55000001192092896,0,-1,0,0.5,0.50999999046325684,0.40999999642372131
467,-2.2000000476837158,0,0.34999999403953552,-2,0,0.55000001192092896,-2.2000000476837158,0,0.55000001192092896,0,-1,0,0.5,0.50999999046325684,0.40999999642372131
468,-2.2000000476837158,0.23999999463558197,0.34999999403953552,-2.2000000476837158,0.23999999463558197,0.55000001192092896,-2,0.23999999463558197,0.55000001192092896,0,1,0,0.5,0.50999999046325684,0.40999999642372131
469,-2.2000000476837158,0.23999999463558197,0.34999999403953552,-2,0.23999999463558197,0.55000001192092896,-2,0.23999999463558197,0.34999999403953552,0,1,0,0.5,0.50999999046325684,0.40999999642372131
470,-1.8999999761581421,0,0.34999999403953552,-1.8999999761581421,0.23999999463558197,0.34999999403953552,-1.7000000476837158,0.23999999463558197,0.34999999403953552,0,0,-1,0.60000002384185791,0.57999998331069946,0.49000000953674316
471,-1.8999999761581421,0,0.34999999403953552,-1.7000000476837158,0.23999999463558197,0.34999999403953552,-1.7000000476837158,0,0.34999999403953552,0,0,-1,0.60000002384185791,0.57999998331069946,0.49000000953674316
472,-1.8999999761581421,0,0.55000001192092896,-1.7000000476837158,0,0.55000001192092896,-1.7000000476837158,0.23999999463558197,0.55000001192092896,0,0,1,0.60000002384185791,0.57999998331069946,0.49000000953674316
473,-1.8999999761581421,0,0.55000001192092896,-1.7000000476837158,0.23999999463558197,0.55000001192092896,-1.8999999761581421,0.23999999463558197,0.55000001192092896,0,0,1,0.60000002384185791,0.57999998331069946,0.49000000953674316
474,-1.8999999761581421,0,0.34999999403953552,-1.8999999761581421,0,0.55000001192092896,-1.8999999761581421,0.23999999463558197,0.55000001192092896,-1,0,0,0.60000002384185791,0.57999998331069946,0.49000000953674316
475,-1.8999999761581421,0,0.34999999403953552,-1.8999999761581421,0.23999999463558197,0.55000001192092896,-1.8999999761581421,0.23999999463558197,0.34999999403953552,-1,0,0,0.60000002384185791,0.57999998331069946,0.49000000953674316
476,-1.7000000476837158,0,0.34999999403953552,-1.7000000476837158,0.23999999463558197,0.34999999403953552,-1.7000000476837158,0.23999999463558197,0.55000001192092896,1,0,0,0.60000002384185791,0.57999998331069946,0.49000000953674316
477,-1.7000000476837158,0,0.34999999403953552,-1.7000000476837158,0.23999999463558197,0.55000001192092896,-1.7000000476837158,0,0.55000001192092896,1,0,0,0.60000002384185791,0.57999998331069946,0.49000000953674316
478,-1.8999999761581421,0,0.34999999403953552,-1.7000000476837158,0,0.34999999403953552,-1.7000000476837158,0,0.55000001192092896,0,-1,0,0.60000002384185791,0.57999998331069946,0.49000000953674316
479,-1.8999999761581421,0,0.34999999403953552,-1.7000000476837158,0,0.55000001192092896,-1.8999999761581421,0,0.55000001192092896,0,-1,0,0.60000002384185791,0.57999998331069946,0.49000000953674316
480,-1.8999999761581421,0.23999999463558197,0.34999999403953552,-1.8999999761581421,0.23999999463558197,0.55000001192092896,-1.7000000476837158,0.23999999463558197,0.55000001192092896,0,1,0,0.60000002384185791,0.57999998331069946,0.49000000953674316
481,-1.8999999761581421,0.23999999463558197,0.34999999403953552,-1.7000000476837158,0.23999999463558197,0.55000001192092896,-1.7000000476837158,0.23999999463558197,0.34999999403953552,0,1,0,0.60000002384185791,0.57999998331069946,0.49000000953674316
482,-1.6000000238418579,0,0.34999999403953552,-1.6000000238418579,0.23999999463558197,0.34999999403953552,-1.3999999761581421,0.23999999463558197,0.34999999403953552,0,0,-1,0.20000000298023224,0.64999997615814209,0.56999999284744263
483,-1.6000000238418579,0,0.34999999403953552,-1.3999999761581421,0.23999999463558197,0.34999999403953552,-1.3999999761581421,0,0.34999999403953552,0,0,-1,0.20000000298023224,0.64999997615814209,0.56999999284744263
484,-1.6000000238418579,0,0.55000001192092896,-1.3999999761581421,0,0.55000001192092896,-1.3999999761581421,0.23999999463558197,0.55000001192092896,0,0,1,0.20000000298023224,0.64999997615814209,0.56999999284744263
485,-1.6000000238418579,0,0.55000001192092896,-1.3999999761581421,0.23999999463558197,0.55000001192092896,-1.6000000238418579,0.23999999463558197,0.55000001192092896,0,0,1,0.20000000298023224,0.64999997615814209,0.56999999284744263
486,-1.6000000238418579,0,0.34999999403953552,-1.6000000238418579,0,0.55000001192092896,-1.6000000238418579,0.23999999463558197,0.55000001192092896,-1,0,0,0.20000000298023224,0.64999997615814209,0.56999999284744263
487,-1.6000000238418579,0,0.34999999403953552,-1.6000000238418579,0.23999999463558197,0.55000001192092896,-1.6000000238418579,0.23999999463558197,0.34999999403953552,-1,0,0,0.20000000298023224,0.64999997615814209,0.56999999284744263
488,-1.3999999761581421,0,0.34999999403953552,-1.3999999761581421,0.23999999463558197,0.34999999403953552,-1.3999999761581421,0.23999999463558197,0.55000001192092896,1,0,0,0.20000000298023224,0.64999997615814209,0.56999999284744263
489,-1.3999999761581421,0,0.34999999403953552,-1.3999999761581421,0.23999999463558197,0.55000001192092896,-1.3999999761581421,0,0.55000001192092896,1,0,0,0.20000000298023224,0.64999997615814209,0.56999999284744263
490,-1.6000000238418579,0,0.34999999403953552,-1.3999999761581421,0,0.34999999403953552,-1.3999999761581421,0,0.55000001192092896,0,-1,0,0.20000000298023224,0.64999997615814209,0.56999999284744263
491,-1.6000000238418579,0,0.34999999403953552,-1.3999999761581421,0,0.55000001192092896,-1.6000000238418579,0,0.55000001192092896,0,-1,0,0.20000000298023224,0.64999997615814209,0.56999999284744263
492,-1.6000000238418579,0.23999999463558197,0.34999999403953552,-1.6000000238418579,0.23999999463558197,0.55000001192092896,-1.3999999761581421,0.23999999463558197,0.55000001192092896,0,1,0,0.20000000298023224,0.64999997615814209,0.56999999284744263
493,-1.6000000238418579,0.23999999463558197,0.34999999403953552,-1.3999999761581421,0.23999999463558197,0.55000001192092896,-1.3999999761581421,0.23999999463558197,0.34999999403953552,0,1,0,0.20000000298023224,0.64999997615814209,0.56999999284744263
494,-1.2999999523162842,0,0.34999999403953552,-1.2999999523162842,0.23999999463558197,0.34999999403953552,-1.1000000238418579,0.23999999463558197,0.34999999403953552,0,0,-1,0.30000001192092896,0.72000002861022949,0.64999997615814209
495,-1.2999999523162842,0,0.34999999403953552,-1.1000000238418579,0.23999999463558197,0.34999999403953552,-1.1000000238418579,0,0.34999999403953552,0,0,-1,0.30000001192092896,0.72000002861022949,0.64999997615814209
496,-1.2999999523162842,0,0.55000001192092896,-1.1000000238418579,0,0.55000001192092896,-1.1000000238418579,0.23999999463558197,0.55000001192092896,0,0,1,0.30000001192092896,0.72000002861022949,0.64999997615814209
497,-1.2999999523162842,0,0.55000001192092896,-1.1000000238418579,0.23999999463558197,0.55000001192092896,-1.2999999523162842,0.23999999463558197,0.55000001192092896,0,0,1,0.30000001192092896,0.72000002861022949,0.64999997615814209
498,-1.2999999523162842,0,0.34999999403953552,-1.2999999523162842,0,0.55000001192092896,-1.2999999523162842,0.23999999463558197,0.55000001192092896,-1,0,0,0.30000001192092896,0.72000002861022949,0.64999997615814209
499,-1.2999999523162842,0,0.34999999403953552,-1.2999999523162842,0.23999999463558197,0.55000001192092896,-1.2999999523162842,0.23999999463558197,0.34999999403953552,-1,0,0,0.30000001192092896,0.72000002861022949,0.64999997615814209
500,-1.1000000238418579,0,0.34999999403953552,-1.1000000238418579,0.23999999463558197,0.34999999403953552,-1.1000000238418579,0.23999999463558197,0.55000001192092896,1,0,0,0.30000001192092896,0.72000002861022949,0.64999997615814209
501,-1.1000000238418579,0,0.34999999403953552,-1.1000000238418579,0.23999999463558197,0.55000001192092896,-1.1000000238418579,0,0.55000001192092896,1,0,0,0.30000001192092896,0.72000002861022949,0.64999997615814209
502,-1.2999999523162842,0,0.34999999403953552,-1.1000000238418579,0,0.34999999403953552,-1.1000000238418579,0,0.55000001192092896,0,-1,0,0.30000001192092896,0.72000002861022949,0.64999997615814209
503,-1.2999999523162842,0,0.34999999403953552,-1.1000000238418579,0,0.55000001192092896,-1.2999999523162842,0,0.55000001192092896,0,-1,0,0.30000001192092896,0.72000002861022949,0.64999997615814209
504,-1.2999999523162842,0.23999999463558197,0.34999999403953552,-1.2999999523162842,0.23999999463558197,0.55000001192092896,-1.1000000238418579,0.23999999463558197,0.55000001192092896,0,1,0,0.30000001192092896,0.72000002861022949,0.64999997615814209
505,-1.2999999523162842,0.23999999463558197,0.34999999403953552,-1.1000000238418579,0.23999999463558197,0.55000001192092896,-1.1000000238418579,0.23999999463558197,0.34999999403953552,0,1,0,0.30000001192092896,0.72000002861022949,0.64999997615814209
506,-3.0999999046325684,0,0.64999997615814209,-3.0999999046325684,0.23999999463558197,0.64999997615814209,-2.9000000953674316,0.23999999463558197,0.64999997615814209,0,0,-1,0.40000000596046448,0.30000001192092896,0.25
507,-3.0999999046325684,0,0.64999997615814209,-2.9000000953674316,0.23999999463558197,0.64999997615814209,-2.9000000953674316,0,0.64999997615814209,0,0,-1,0.40000000596046448,0.30000001192092896,0.25
508,-3.0999999046325684,0,0.85000002384185791,-2.9000000953674316,0,0.85000002384185791,-2.9000000953674316,0.23999999463558197,0.85000002384185791,0,0,1,0.40000000596046448,0.30000001192092896,0.25
509,-3.0999999046325684,0,0.85000002384185791,-2.9000000953674316,0.23999999463558197,0.85000002384185791,-3.0999999046325684,0.23999999463558197,0.85000002384185791,0,0,1,0.40000000596046448,0.30000001192092896,0.25
510,-3.0999999046325684,0,0.64999997615814209,-3.0999999046325684,0,0.85000002384185791,-3.0999999046325684,0.23999999463558197,0.85000002384185791,-1,0,0,0.40000000596046448,0.30000001192092896,0.25
511,-3.0999999046325684,0,0.64999997615814209,-3.0999999046325684,0.23999999463558197,0.85000002384185791,-3.0999999046325684,0.23999999463558197,0.64999997615814209,-1,0,0,0.40000000596046448,0.30000001192092896,0.25
512,-2.9000000953674316,0,0.64999997615814209,-2.9000000953674316,0.23999999463558197,0.64999997615814209,-2.9000000953674316,0.23999999463558197,0.85000002384185791,1,0,0,0.40000000596046448,0.30000001192092896,0.25
513,-2.9000000953674316,0,0.64999997615814209,-2.9000000953674316,0.23999999463558197,0.85000002384185791,-2.9000000953674316,0,0.85000002384185791,1,0,0,0.40000000596046448,0.30000001192092896,0.25
514,-3.0999999046325684,0,0.64999997615814209,-2.9000000953674316,0,0.64999997615814209,-2.9000000953674316,0,0.85000002384185791,0,-1,0,0.40000000596046448,0.30000001192092896,0.25
515,-3.0999999046325684,0,0.64999997615814209,-2.9000000953674316,0,0.85000002384185791,-3.0999999046325684,0,0.85000002384185791,0,-1,0,0.40000000596046448,0.30000001192092896,0.25
516,-3.0999999046325684,0.23999999463558197,0.64999997615814209,-3.0999999046325684,0.23999999463558197,0.85000002384185791,-2.9000000953674316,0.23999999463558197,0.85000002384185791,0,1,0,0.40000000596046448,0.30000001192092896,0.25
517,-3.0999999046325684,0.23999999463558197,0.64999997615814209,-2.9000000953674316,0.23999999463558197,0.85000002384185791,-2.9000000953674316,0.23999999463558197,0.64999997615814209,0,1,0,0.40000000596046448,0.30000001192092896,0.25
518,-2.7999999523162842,0,0.64999997615814209,-2.7999999523162842,0.23999999463558197,0.64999997615814209,-2.5999999046325684,0.23999999463558197,0.64999997615814209,0,0,-1,0.5,0.37000000476837158,0.33000001311302185
519,-2.7999999523162842,0,0.64999997615814209,-2.5999999046325684,0.23999999463558197,0.64999997615814209,-2.5999999046325684,0,0.64999997615814209,0,0,-1,0.5,0.37000000476837158,0.33000001311302185
520,-2.7999999523162842,0,0.85000002384185791,-2.5999999046325684,0,0.85000002384185791,-2.5999999046325684,0.23999999463558197,0.85000002384185791,0,0,1,0.5,0.37000000476837158,0.33000001311302185
521,-2.7999999523162842,0,0.85000002384185791,-2.5999999046325684,0.23999999463558197,0.85000002384185791,-2.7999999523162842,0.23999999463558197,0.85000002384185791,0,0,1,0.5,0.37000000476837158,0.33000001311302185
522,-2.7999999523162842,0,0.64999997615814209,-2.7999999523162842,0,0.85000002384185791,-2.7999999523162842,0.23999999463558197,0.85000002384185791,-1,0,0,0.5,0.37000000476837158,0.33000001311302185
523,-2.7999999523162842,0,0.64999997615814209,-2.7999999523162842,0.23999999463558197,0.85000002384185791,-2.7999999523162842,0.23999999463558197,0.64999997615814209,-1,0,0,0.5,0.37000000476837158,0.33000001311302185
524,-2.5999999046325684,0,0.64999997615814209,-2.5999999046325684,0.23999999463558197,0.64999997615814209,-2.5999999046325684,0.23999999463558197,0.85000002384185791,1,0,0,0.5,0.37000000476837158,0.33000001311302185
525,-2.5999999046325684,0,0.64999997615814209,-2.5999999046325684,0.23999999463558197,0.85000002384185791,-2.5999999046325684,0,0.85000002384185791,1,0,0,0.5,0.37000000476837158,0.33000001311302185
526,-2.7999999523162842,0,0.64999997615814209,-2.5999999046325684,0,0.64999997615814209,-2.5999999046325684,0,0.85000002384185791,0,-1,0,0.5,0.37000000476837158,0.33000001311302185
527,-2.7999999523162842,0,0.64999997615814209,-2.5999999046325684,0,0.85000002384185791,-2.7999999523162842,0,0.85000002384185791,0,-1,0,0.5,0.37000000476837158,0.33000001311302185
528,-2.7999999523162842,0.23999999463558197,0.64999997615814209,-2.7999999523162842,0.23999999463558197,0.85000002384185791,-2.5999999046325684,0.23999999463558197,0.85000002384185791,0,1,0,0.5,0.37000000476837158,0.33000001311302185
529,-2.7999999523162842,0.23999999463558197,0.64999997615814209,-2.5999999046325684,0.23999999463558197,0.85000002384185791,-2.5999999046325684,0.23999999463558197,0.64999997615814209,0,1,0,0.5,0.37000000476837158,0.33000001311302185
530,-2.5,0,0.64999997615814209,-2.5,0.23999999463558197,0.64999997615814209,-2.2999999523162842,0.23999999463558197,0.64999997615814209,0,0,-1,0.60000002384185791,0.43999999761581421,0.40999999642372131
531,-2.5,0,0.64999997615814209,-2.2999999523162842,0.23999999463558197,0.64999997615814209,-2.2999999523162842,0,0.64999997615814209,0,0,-1,0.60000002384185791,0.43999999761581421,0.40999999642372131
532,-2.5,0,0.85000002384185791,-2.2999999523162842,0,0.85000002384185791,-2.2999999523162842,0.23999999463558197,0.85000002384185791,0,0,1,0.60000002384185791,0.43999999761581421,0.40999999642372131
533,-2.5,0,0.85000002384185791,-2.2999999523162842,0.23999999463558197,0.85000002384185791,-2.5,0.23999999463558197,0.85000002384185791,0,0,1,0.60000002384185791,0.43999999761581421,0.40999999642372131
534,-2.5,0,0.64999997615814209,-2.5,0,0.85000002384185791,-2.5,0.23999999463558197,0.85000002384185791,-1,0,0,0.60000002384185791,0.43999999761581421,0.40999999642372131
535,-2.5,0,0.64999997615814209,-2.5,0.23999999463558197,0.85000002384185791,-2.5,0.23999999463558197,0.64999997615814209,-1,0,0,0.60000002384185791,0.43999999761581421,0.40999999642372131
536,-2.2999999523162842,0,0.64999997615814209,-2.2999999523162842,0.23999999463558197,0.64999997615814209,-2.2999999523162842,0.23999999463558197,0.85000002384185791,1,0,0,0.60000002384185791,0.43999999761581421,0.40999999642372131
537,-2.2999999523162842,0,0.64999997615814209,-2.2999999523162842,0.23999999463558197,0.85000002384185791,-2.2999999523162842,0,0.85000002384185791,1,0,0,0.60000002384185791,0.43999999761581421,0.40999999642372131
538,-2.5,0,0.64999997615814209,-2.2999999523162842,0,0.64999997615814209,-2.2999999523162842,0,0.85000002384185791,0,-1,0,0.60000002384185791,0.43999999761581421,0.40999999642372131
539,-2.5,0,0.64999997615814209,-2.2999999523162842,0,0.85000002384185791,-2.5,0,0.85000002384185791,0,-1,0,0.60000002384185791,0.43999999761581421,0.40999999642372131
540,-2.5,0.23999999463558197,0.64999997615814209,-2.5,0.23999999463558197,0.85000002384185791,-2.2999999523162842,0.23999999463558197,0.85000002384185791,0,1,0,0.60000002384185791,0.43999999761581421,0.40999999642372131
541,-2.5,0.23999999463558197,0.64999997615814209,-2.2999999523162842,0.23999999463558197,0.85000002384185791,-2.2999999523162842,0.23999999463558197,0.64999997615814209,0,1,0,0.60000002384185791,0.43999999761581421,0.40999999642372131
542,-2.2000000476837158,0,0.64999997615814209,-2.2000000476837158,0.23999999463558197,0.64999997615814209,-2,0.23999999463558197,0.64999997615814209,0,0,-1,0.20000000298023224,0.50999999046325684,0.49000000953674316
543,-2.2000000476837158,0,0.64999997615814209,-2,0.23999999463558197,0.64999997615814209,-2,0,0.64999997615814209,0,0,-1,0.20000000298023224,0.50999999046325684,0.49000000953674316
544,-2.2000000476837158,0,0.85000002384185791,-2,0,0.85000002384185791,-2,0.23999999463558197,0.85000002384185791,0,0,1,0.20000000298023224,0.50999999046325684,0.49000000953674316
545,-2.2000000476837158,0,0.85000002384185791,-2,0.23999999463558197,0.85000002384185791,-2.2000000476837158,0.23999999463558197,0.85000002384185791,0,0,1,0.20000000298023224,0.50999999046325684,0.49000000953674316
546,-2.2000000476837158,0,0.64999997615814209,-2.2000000476837158,0,0.85000002384185791,-2.2000000476837158,0.23999999463558197,0.85000002384185791,-1,0,0,0.20000000298023224,0.50999999046325684,0.49000000953674316
547,-2.2000000476837158,0,0.64999997615814209,-2.2000000476837158,0.23999999463558197,0.85000002384185791,-2.2000000476837158,0.23999999463558197,0.64999997615814209,-1,0,0,0.20000000298023224,0.50999999046325684,0.49000000953674316
548,-2,0,0.64999997615814209,-2,0.23999999463558197,0.64999997615814209,-2,0.23999999463558197,0.85000002384185791,1,0,0,0.20000000298023224,0.50999999046325684,0.49000000953674316
549,-2,0,0.64999997615814209,-2,0.23999999463558197,0.85000002384185791,-2,0,0.85000002384185791,1,0,0,0.20000000298023224,0.50999999046325684,0.49000000953674316
550,-2.2000000476837158,0,0.64999997615814209,-2,0,0.64999997615814209,-2,0,0.85000002384185791,0,-1,0,0.20000000298023224,0.50999999046325684,0.49000000953674316
551,-2.2000000476837158,0,0.64999997615814209,-2,0,0.85000002384185791,-2.2000000476837158,0,0.85000002384185791,0,-1,0,0.20000000298023224,0.50999999046325684,0.49000000953674316
552,-2.2000000476837158,0.23999999463558197,0.64999997615814209,-2.2000000476837158,0.23999999463558197,0.85000002384185791,-2,0.23999999463558197,0.85000002384185791,0,1,0,0.20000000298023224,0.50999999046325684,0.49000000953674316
553,-2.2000000476837158,0.23999999463558197,0.64999997615814209,-2,0.23999999463558197,0.85000002384185791,-2,0.23999999463558197,0.64999997615814209,0,1,0,0.20000000298023224,0.50999999046325684,0.49000000953674316
554,-1.8999999761581421,0,0.64999997615814209,-1.8999999761581421,0.23999999463558197,0.64999997615814209,-1.7000000476837158,0.23999999463558197,0.64999997615814209,0,0,-1,0.30000001192092896,0.57999998331069946,0.56999999284744263
555,-1.8999999761581421,0,0.64999997615814209,-1.7000000476837158,0.23999999463558197,0.64999997615814209,-1.7000000476837158,0,0.64999997615814209,0,0,-1,0.30000001192092896,0.57999998331069946,0.56999999284744263
556,-1.8999999761581421,0,0.85000002384185791,-1.7000000476837158,0,0.85000002384185791,-1.7000000476837158,0.23999999463558197,0.85000002384185791,0,0,1,0.30000001192092896,0.57999998331069946,0.56999999284744263
557,-1.8999999761581421,0,0.85000002384185791,-1.7000000476837158,0.23999999463558197,0.85000002384185791,-1.8999999761581421,0.23999999463558197,0.85000002384185791,0,0,1,0.30000001192092896,0.57999998331069946,0.56999999284744263
558,-1.8999999761581421,0,0.64999997615814209,-1.8999999761581421,0,0.85000002384185791,-1.8999999761581421,0.23999999463558197,0.85000002384185791,-1,0,0,0.30000001192092896,0.57999998331069946,0.56999999284744263
559,-1.8999999761581421,0,0.64999997615814209,-1.8999999761581421,0.23999999463558197,0.85000002384185791,-1.8999999761581421,0.23999999463558197,0.64999997615814209,-1,0,0,0.30000001192092896,0.57999998331069946,0.56999999284744263
560,-1.7000000476837158,0,0.64999997615814209,-1.7000000476837158,0.23999999463558197,0.64999997615814209,-1.7000000476837158,0.23999999463558197,0.85000002384185791,1,0,0,0.30000001192092896,0.57999998331069946,0.56999999284744263
561,-1.7000000476837158,0,0.64999997615814209,-1.7000000476837158,0.23999999463558197,0.85000002384185791,-1.7000000476837158,0,0.85000002384185791,1,0,0,0.30000001192092896,0.57999998331069946,0.56999999284744263
562,-1.8999999761581421,0,0.64999997615814209,-1.7000000476837158,0,0.64999997615814209,-1.7000000476837158,0,0.85000002384185791,0,-1,0,0.30000001192092896,0.57999998331069946,0.56999999284744263
563,-1.8999999761581421,0,0.64999997615814209,-1.7000000476837158,0,0.85000002384185791,-1.8999999761581421,0,0.85000002384185791,0,-1,0,0.30000001192092896,0.57999998331069946,0.56999999284744263
564,-1.8999999761581421,0.23999999463558197,0.64999997615814209,-1.8999999761581421,0.23999999463558197,0.85000002384185791,-1.7000000476837158,0.23999999463558197,0.85000002384185791,0,1,0,0.30000001192092896,0.57999998331069946,0.56999999284744263
565,-1.8999999761581421,0.23999999463558197,0.64999997615814209,-1.7000000476837158,0.23999999463558197,0.85000002384185791,-1.7000000476837158,0.23999999463558197,0.64999997615814209,0,1,0,0.30000001192092896,0.57999998331069946,0.56999999284744263
566,-1.6000000238418579,0,0.64999997615814209,-1.6000000238418579,0.23999999463558197,0.64999997615814209,-1.3999999761581421,0.23999999463558197,0.64999997615814209,0,0,-1,0.40000000596046448,0.64999997615814209,0.64999997615814209
567,-1.6000000238418579,0,0.64999997615814209,-1.3999999761581421,0.23999999463558197,0.64999997615814209,-1.3999999761581421,0,0.64999997615814209,0,0,-1,0.40000000596046448,0.64999997615814209,0.64999997615814209
568,-1.6000000238418579,0,0.85000002384185791,-1.3999999761581421,0,0.85000002384185791,-1.3999999761581421,0.23999999463558197,0.85000002384185791,0,0,1,0.40000000596046448,0.64999997615814209,0.64999997615814209
569,-1.6000000238418579,0,0.85000002384185791,-1.3999999761581421,0.23999999463558197,0.85000002384185791,-1.6000000238418579,0.23999999463558197,0.85000002384185791,0,0,1,0.40000000596046448,0.64999997615814209,0.64999997615814209
570,-1.6000000238418579,0,0.64999997615814209,-1.6000000238418579,0,0.85000002384185791,-1.6000000238418579,0.23999999463558197,0.85000002384185791,-1,0,0,0.40000000596046448,0.64999997615814209,0.64999997615814209
571,-1.6000000238418579,0,0.64999997615814209,-1.6000000238418579,0.23999999463558197,0.85000002384185791,-1.6000000238418579,0.23999999463558197,0.64999997615814209,-1,0,0,0.40000000596046448,0.64999997615814209,0.64999997615814209
572,-1.3999999761581421,0,0.64999997615814209,-1.3999999761581421,0.23999999463558197,0.64999997615814209,-1.3999999761581421,0.23999999463558197,0.85000002384185791,1,0,0,0.40000000596046448,0.64999997615814209,0.64999997615814209
573,-1.3999999761581421,0,0.64999997615814209,-1.3999999761581421,0.23999999463558197,0.85000002384185791,-1.3999999761581421,0,0.85000002384185791,1,0,0,0.40000000596046448,0.64999997615814209,0.64999997615814209
574,-1.6000000238418579,0,0.64999997615814209,-1.3999999761581421,0,0.64999997615814209,-1.3999999761581421,0,0.85000002384185791,0,-1,0,0.40000000596046448,0.64999997615814209,0.64999997615814209
575,-1.6000000238418579,0,0.64999997615814209,-1.3999999761581421,0,0.85000002384185791,-1.6000000238418579,0,0.85000002384185791,0,-1,0,0.40000000596046448,0.64999997615814209,0.64999997615814209
576,-1.6000000238418579,0.23999999463558197,0.64999997615814209,-1.6000000238418579,0.23999999463558197,0.85000002384185791,-1.3999999761581421,0.23999999463558197,0.85000002384185791,0,1,0,0.40000000596046448,0.64999997615814209,0.64999997615814209
577,-1.6000000238418579,0.23999999463558197,0.64999997615814209,-1.3999999761581421,0.23999999463558197,0.85000002384185791,-1.3999999761581421,0.23999999463558197,0.64999997615814209,0,1,0,0.40000000596046448,0.64999997615814209,0.64999997615814209
578,-1.2999999523162842,0,0.64999997615814209,-1.2999999523162842,0.23999999463558197,0.64999997615814209,-1.1000000238418579,0.23999999463558197,0.64999997615814209,0,0,-1,0.5,0.72000002861022949,0.25
579,-1.2999999523162842,0,0.64999997615814209,-1.1000000238418579,0.23999999463558197,0.64999997615814209,-1.1000000238418579,0,0.64999997615814209,0,0,-1,0.5,0.72000002861022949,0.25
580,-1.2999999523162842,0,0.85000002384185791,-1.1000000238418579,0,0.85000002384185791,-1.1000000238418579,0.23999999463558197,0.85000002384185791,0,0,1,0.5,0.72000002861022949,0.25
581,-1.2999999523162842,0,0.85000002384185791,-1.1000000238418579,0.23999999463558197,0.85000002384185791,-1.2999999523162842,0.23999999463558197,0.85000002384185791,0,0,1,0.5,0.72000002861022949,0.25
582,-1.2999999523162842,0,0.64999997615814209,-1.2999999523162842,0,0.85000002384185791,-1.2999999523162842,0.23999999463558197,0.85000002384185791,-1,0,0,0.5,0.72000002861022949,0.25
583,-1.2999999523162842,0,0.64999997615814209,-1.2999999523162842,0.23999999463558197,0.85000002384185791,-1.2999999523162842,0.23999999463558197,0.64999997615814209,-1,0,0,0.5,0.72000002861022949,0.25
